[
{
	"response": {
		"id": "317366",
		"uuid": "559d8fce-eec3-459d-a9ea-2b56f3829bdc",
		"date_created": "2025-04-25 21:41:21.114891+00:00",
		"completed": true,
		"withdrawn": false,
		"eligibility": [
			"Eligible"
		],
		"parent_feedback": null,
		"birthdate_difference": 0,
		"video_privacy": "scientific",
		"databrary": "yes",
		"is_preview": false,
		"sequence": [
			"0-preload",
			"1-preload",
			"2-preload",
			"3-html-button-response",
			"4-video-config-plugin",
			"5-consent-video",
			"6-survey",
			"7-video-button-response",
			"8-html-button-response",
			"11-start-record-plugin",
			"12-html-keyboard-response",
			"13-html-button-response",
			"14-html-button-response",
			"15-video-button-response",
			"16-html-button-response",
			"17-video-button-response",
			"18-html-keyboard-response",
			"19-html-button-response",
			"20-html-button-response",
			"21-html-button-response",
			"22-html-button-response",
			"23-html-button-response",
			"24-html-button-response",
			"25-html-button-response",
			"26-html-button-response",
			"27-html-keyboard-response",
			"28-video-button-response",
			"29-html-button-response",
			"30-html-button-response",
			"31-html-button-response",
			"32-html-button-response",
			"33-video-button-response",
			"34-html-button-response",
			"35-video-button-response",
			"36-html-button-response",
			"37-html-button-response",
			"38-html-button-response",
			"39-html-button-response",
			"40-html-button-response",
			"41-html-button-response",
			"42-html-button-response",
			"43-html-button-response",
			"44-video-button-response",
			"45-html-button-response",
			"46-html-button-response",
			"47-html-button-response",
			"48-stop-record-plugin",
			"49-html-button-response",
			"50-video-button-response",
			"51-html-button-response",
			"52-survey",
			"53-survey",
			"54-survey"
		],
		"conditions": [],
		"researcher_payment_status": "",
		"researcher_session_status": "",
		"researcher_star": false
	},
	"consent": {
		"ruling": "accepted",
		"arbiter": "Rondeline  Williams",
		"time": "2025-04-27 02:34",
		"comment": null
	},
	"study": {
		"uuid": "f713a0cc-903f-4f62-8566-dfc7fceaf350"
	},
	"participant": {
		"hashed_id": "26EV6S"
	},
	"child": {
		"hashed_id": "VMSDDT",
		"age_rounded": "1680",
		"gender": "m",
		"age_at_birth": "39 weeks",
		"language_list": "en",
		"condition_list": "",
		"additional_information": ""
	},
	"exp_data": [
		{
			"success": true,
			"timeout": false,
			"trial_type": "preload",
			"trial_index": 0,
			"failed_audio": [],
			"failed_video": [],
			"time_elapsed": 4044,
			"failed_images": [],
			"plugin_version": "2.0.0"
		},
		{
			"success": true,
			"timeout": false,
			"trial_type": "preload",
			"trial_index": 1,
			"failed_audio": [],
			"failed_video": [],
			"time_elapsed": 16775,
			"failed_images": [],
			"plugin_version": "2.0.0"
		},
		{
			"success": true,
			"timeout": false,
			"trial_type": "preload",
			"trial_index": 2,
			"failed_audio": [],
			"failed_video": [],
			"time_elapsed": 35523,
			"failed_images": [],
			"plugin_version": "2.0.0"
		},
		{
			"rt": 8164,
			"response": 0,
			"stimulus": "Welcome! Press \"next\" to continue.",
			"trial_type": "html-button-response",
			"trial_index": 3,
			"time_elapsed": 43689,
			"plugin_version": "2.0.0"
		},
		{
			"rt": 12919,
			"camId": "1191c24fed2314ae75c41df96c273c2f380399ff6e9189aa79acbeae4d44309b",
			"micId": "7578c5de256055f1fffa3c8770a07a9b84dce1202c57ec39faa7a3342722efa6",
			"trial_type": "video-config-plugin",
			"trial_index": 4,
			"time_elapsed": 56648,
			"plugin_version": "3.0.1"
		},
		{
			"chs_type": "consent",
			"trial_type": "consent-video",
			"trial_index": 5,
			"time_elapsed": 87197,
			"plugin_version": "3.0.1"
		},
		{
			"rt": 10513,
			"chs_type": "consent",
			"response": {
				"audio": null,
				"video": null,
				"Ready?": null,
				"question1": null
			},
			"trial_type": "survey",
			"trial_index": 6,
			"time_elapsed": 97783,
			"plugin_version": "2.0.0"
		},
		{
			"rt": null,
			"response": null,
			"stimulus": [
				"https://raw.githubusercontent.com/rondeline/metanoise/master/mp4/directions.mp4"
			],
			"trial_type": "video-button-response",
			"trial_index": 7,
			"time_elapsed": 131121,
			"plugin_version": "2.0.0"
		},
		{
			"rt": 17769,
			"response": 0,
			"stimulus": "\n      <div style=\"display: flex; flex-direction: column; align-items: center; justify-content: center; gap: 40px; max-width: 90vw; margin: auto; margin-bottom: 50px;\">\n          <img src=\"https://raw.githubusercontent.com/rondeline/metanoise/master/img/floatinghead.png\" style=\"width: 20vw; max-width: 200px; height: auto;\">\n      </div>\n    ",
			"trial_type": "html-button-response",
			"trial_index": 8,
			"time_elapsed": 148894,
			"plugin_version": "2.0.0"
		},
		{
			"trial_type": "html-button-response",
			"trial_index": 10,
			"time_elapsed": 161753,
			"plugin_version": "2.0.0"
		},
		{
			"trial_type": "start-record-plugin",
			"trial_index": 11,
			"time_elapsed": 162039,
			"plugin_version": null
		},
		{
			"trial_type": "html-keyboard-response",
			"trial_index": 12,
			"time_elapsed": 173717,
			"plugin_version": "2.0.0"
		},
		{
			"trial_type": "html-button-response",
			"trial_index": 13,
			"time_elapsed": 186425,
			"plugin_version": "2.0.0"
		},
		{
			"trial_type": "html-button-response",
			"trial_index": 14,
			"time_elapsed": 221236,
			"plugin_version": "2.0.0",
			"correct_response": 3
		},
		{
			"rt": 1312,
			"response": 0,
			"stimulus": [
				"https://raw.githubusercontent.com/rondeline/metanoise/master/mp4/RMS70_gotit.mp4"
			],
			"trial_type": "video-button-response",
			"trial_index": 15,
			"time_elapsed": 222551,
			"plugin_version": "2.0.0"
		},
		{
			"trial_type": "html-button-response",
			"trial_index": 16,
			"time_elapsed": 232112,
			"plugin_version": "2.0.0",
			"correct_response": 1
		},
		{
			"rt": 1466,
			"response": 0,
			"stimulus": [
				"https://raw.githubusercontent.com/rondeline/metanoise/master/mp4/RMS70_readytoplay.mp4"
			],
			"trial_type": "video-button-response",
			"trial_index": 17,
			"time_elapsed": 233582,
			"plugin_version": "2.0.0"
		},
		{
			"rt": null,
			"response": null,
			"stimulus": "<p>Get ready!</p>",
			"trial_type": "html-keyboard-response",
			"trial_index": 18,
			"time_elapsed": 234085,
			"plugin_version": "2.0.0"
		},
		{
			"rt": 27142,
			"response": 3,
			"stimulus": "\n    <div style=\"display: flex; justify-content: center; width: 90vw; margin: 20px auto;\">\n        <img src=\"https://raw.githubusercontent.com/rondeline/metanoise/master/img/scissors_picture.png\" style=\"width: 70%; height: auto; max-width: none;\">\n    </div>",
			"trial_type": "html-button-response",
			"trial_index": 19,
			"time_elapsed": 261229,
			"plugin_version": "2.0.0"
		},
		{
			"rt": 10065,
			"response": 3,
			"stimulus": "\n    <div style=\"display: flex; justify-content: center; width: 90vw; margin: 20px auto;\">\n        <img src=\"https://raw.githubusercontent.com/rondeline/metanoise/master/img/bowl_picture.png\" style=\"width: 70%; height: auto; max-width: none;\">\n    </div>",
			"trial_type": "html-button-response",
			"trial_index": 20,
			"time_elapsed": 271296,
			"plugin_version": "2.0.0"
		},
		{
			"rt": 14512,
			"response": 2,
			"stimulus": "\n    <div style=\"display: flex; justify-content: center; width: 90vw; margin: 20px auto;\">\n        <img src=\"https://raw.githubusercontent.com/rondeline/metanoise/master/img/pot_picture.png\" style=\"width: 70%; height: auto; max-width: none;\">\n    </div>",
			"trial_type": "html-button-response",
			"trial_index": 21,
			"time_elapsed": 285811,
			"plugin_version": "2.0.0"
		},
		{
			"rt": 8165,
			"response": 2,
			"stimulus": "\n    <div style=\"display: flex; justify-content: center; padding: 0 5vw; max-width: 90vw; margin: 20px auto;\">\n        <img src=\"https://raw.githubusercontent.com/rondeline/metanoise/master/img/flower_picture.png\" style=\"max-width: 80%; height: auto;\">\n    </div>",
			"trial_type": "html-button-response",
			"trial_index": 22,
			"time_elapsed": 293979,
			"plugin_version": "2.0.0"
		},
		{
			"rt": 10585,
			"response": 0,
			"stimulus": "\n    <div style=\"display: flex; justify-content: center; width: 90vw; margin: 20px auto;\">\n        <img src=\"https://raw.githubusercontent.com/rondeline/metanoise/master/img/door_picture.png\" style=\"width: 75%; height: auto; max-width: none;\">\n    </div>",
			"trial_type": "html-button-response",
			"trial_index": 23,
			"time_elapsed": 304566,
			"plugin_version": "2.0.0"
		},
		{
			"rt": 8432,
			"response": 0,
			"stimulus": "\n    <div style=\"display: flex; justify-content: center; padding: 0 5vw; max-width: 90vw; margin: 20px auto;\">\n        <img src=\"https://raw.githubusercontent.com/rondeline/metanoise/master/img/cat_picture.png\" style=\"max-width: 80%; height: auto;\">\n    </div>",
			"trial_type": "html-button-response",
			"trial_index": 24,
			"time_elapsed": 313001,
			"plugin_version": "2.0.0"
		},
		{
			"rt": 6278,
			"response": 2,
			"stimulus": "\n    <div style=\"display: flex; justify-content: center; width: 90vw; margin: 20px auto;\">\n        <img src=\"https://raw.githubusercontent.com/rondeline/metanoise/master/img/fish_picture.png\" style=\"width: 65%; height: auto; max-width: none;\">\n    </div>",
			"trial_type": "html-button-response",
			"trial_index": 25,
			"time_elapsed": 319280,
			"plugin_version": "2.0.0"
		},
		{
			"rt": 7408,
			"response": 0,
			"stimulus": "\n    <div style=\"display: flex; justify-content: center; padding: 0 5vw; max-width: 90vw; margin: 20px auto;\">\n        <img src=\"https://raw.githubusercontent.com/rondeline/metanoise/master/img/tree_picture.png\" style=\"max-width: 80%; height: auto;\">\n    </div>",
			"trial_type": "html-button-response",
			"trial_index": 26,
			"time_elapsed": 326692,
			"plugin_version": "2.0.0"
		},
		{
			"rt": null,
			"response": null,
			"stimulus": "<p>Trials complete! Please wait...</p>",
			"trial_type": "html-keyboard-response",
			"trial_index": 27,
			"time_elapsed": 327195,
			"plugin_version": "2.0.0"
		},
		{
			"rt": null,
			"response": null,
			"stimulus": [
				"https://raw.githubusercontent.com/rondeline/metanoise/master/mp4/RMS70_finished.mp4"
			],
			"trial_type": "video-button-response",
			"trial_index": 28,
			"time_elapsed": 334187,
			"plugin_version": "2.0.0"
		},
		{
			"rt": 5957,
			"response": 0,
			"stimulus": "\n      <div style=\"display: flex; flex-direction: column; align-items: center; justify-content: center; gap: 20px; max-width: 90vw; margin: auto;\">\n          <img src=\"https://raw.githubusercontent.com/rondeline/metanoise/master/img/floatinghead.png\" style=\"width: 20vw; max-width: 200px; height: auto;\">\n      </div>\n    ",
			"trial_type": "html-button-response",
			"trial_index": 29,
			"time_elapsed": 340146,
			"plugin_version": "2.0.0"
		},
		{
			"trial_type": "html-button-response",
			"trial_index": 30,
			"time_elapsed": 346227,
			"plugin_version": "2.0.0"
		},
		{
			"trial_type": "html-button-response",
			"trial_index": 31,
			"time_elapsed": 364926,
			"plugin_version": "2.0.0"
		},
		{
			"trial_type": "html-button-response",
			"trial_index": 32,
			"time_elapsed": 382035,
			"plugin_version": "2.0.0",
			"correct_response": 2
		},
		{
			"rt": 1919,
			"response": 0,
			"stimulus": [
				"https://raw.githubusercontent.com/rondeline/metanoise/master/mp4/RMS70_gotit.mp4"
			],
			"trial_type": "video-button-response",
			"trial_index": 33,
			"time_elapsed": 383958,
			"plugin_version": "2.0.0"
		},
		{
			"trial_type": "html-button-response",
			"trial_index": 34,
			"time_elapsed": 395395,
			"plugin_version": "2.0.0",
			"correct_response": 0
		},
		{
			"rt": 1917,
			"response": 0,
			"stimulus": [
				"https://raw.githubusercontent.com/rondeline/metanoise/master/mp4/RMS70_readytoplay.mp4"
			],
			"trial_type": "video-button-response",
			"trial_index": 35,
			"time_elapsed": 397316,
			"plugin_version": "2.0.0"
		},
		{
			"rt": 46494,
			"response": 6,
			"stimulus": "\n    <div style=\"display: flex; justify-content: center; padding: 0 5vw; max-width: 90vw; margin: 20px auto;\">\n        <img src=\"https://raw.githubusercontent.com/rondeline/metanoise/master/img/cookies.png\" style=\"max-width: 80%; height: auto;\">\n    </div>\n    ",
			"trial_type": "html-button-response",
			"trial_index": 36,
			"time_elapsed": 443812,
			"plugin_version": "2.0.0"
		},
		{
			"rt": 18342,
			"response": 6,
			"stimulus": "\n    <div style=\"display: flex; justify-content: center; padding: 0 5vw; max-width: 90vw; margin: 20px auto;\">\n        <img src=\"https://raw.githubusercontent.com/rondeline/metanoise/master/img/balloon.png\" style=\"max-width: 80%; height: auto;\">\n    </div>\n    ",
			"trial_type": "html-button-response",
			"trial_index": 37,
			"time_elapsed": 462163,
			"plugin_version": "2.0.0"
		},
		{
			"rt": 7424,
			"response": 2,
			"stimulus": "\n    <div style=\"display: flex; justify-content: center; padding: 0 5vw; max-width: 90vw; margin: 20px auto;\">\n        <img src=\"https://raw.githubusercontent.com/rondeline/metanoise/master/img/crayons.png\" style=\"max-width: 80%; height: auto;\">\n    </div>\n    ",
			"trial_type": "html-button-response",
			"trial_index": 38,
			"time_elapsed": 469590,
			"extension_type": [
				"chs-trial-record-extension"
			],
			"plugin_version": "2.0.0",
			"extension_version": [
				null
			]
		},
		{
			"rt": 12285,
			"response": 6,
			"stimulus": "\n    <div style=\"display: flex; justify-content: center; padding: 0 5vw; max-width: 90vw; margin: 20px auto;\">\n        <img src=\"https://raw.githubusercontent.com/rondeline/metanoise/master/img/picture.png\" style=\"max-width: 80%; height: auto;\">\n    </div>\n    ",
			"trial_type": "html-button-response",
			"trial_index": 39,
			"time_elapsed": 481879,
			"plugin_version": "2.0.0"
		},
		{
			"rt": 9766,
			"response": 4,
			"stimulus": "\n    <div style=\"display: flex; justify-content: center; padding: 0 5vw; max-width: 90vw; margin: 20px auto;\">\n        <img src=\"https://raw.githubusercontent.com/rondeline/metanoise/master/img/monkey.png\" style=\"max-width: 80%; height: auto;\">\n    </div>\n    ",
			"trial_type": "html-button-response",
			"trial_index": 40,
			"time_elapsed": 491648,
			"plugin_version": "2.0.0"
		},
		{
			"rt": 27782,
			"response": 1,
			"stimulus": "\n    <div style=\"display: flex; justify-content: center; padding: 0 5vw; max-width: 90vw; margin: 20px auto;\">\n        <img src=\"https://raw.githubusercontent.com/rondeline/metanoise/master/img/basketball.png\" style=\"max-width: 80%; height: auto;\">\n    </div>\n    ",
			"trial_type": "html-button-response",
			"trial_index": 41,
			"time_elapsed": 519433,
			"plugin_version": "2.0.0"
		},
		{
			"rt": 13116,
			"response": 5,
			"stimulus": "\n        <div style=\"display: flex; justify-content: center; padding: 0 5vw; max-width: 90vw; margin: 20px auto;\">\n            <img src=\"https://raw.githubusercontent.com/rondeline/metanoise/master/img/flowers.png\" style=\"max-width: 80%; height: auto;\">\n        </div>\n    ",
			"trial_type": "html-button-response",
			"trial_index": 42,
			"time_elapsed": 532556,
			"plugin_version": "2.0.0"
		},
		{
			"rt": 7870,
			"response": 3,
			"stimulus": "\n    <div style=\"display: flex; justify-content: center; padding: 0 5vw; max-width: 90vw; margin: 20px auto;\">\n        <img src=\"https://raw.githubusercontent.com/rondeline/metanoise/master/img/pig.png\" style=\"max-width: 80%; height: auto;\">\n    </div>\n    ",
			"trial_type": "html-button-response",
			"trial_index": 43,
			"time_elapsed": 540430,
			"plugin_version": "2.0.0"
		},
		{
			"rt": null,
			"response": null,
			"stimulus": [
				"https://raw.githubusercontent.com/rondeline/metanoise/master/mp4/RMS70_finished.mp4"
			],
			"trial_type": "video-button-response",
			"trial_index": 44,
			"time_elapsed": 547379,
			"plugin_version": "2.0.0"
		},
		{
			"rt": 14481,
			"response": 0,
			"stimulus": "\n      <div style=\"display: flex; flex-direction: column; align-items: center; justify-content: center; gap: 20px; max-width: 90vw; margin: auto;\">\n          <img src=\"https://raw.githubusercontent.com/rondeline/metanoise/master/img/floatinghead.png\" style=\"width: 20vw; max-width: 200px; height: auto;\">\n      </div>\n    ",
			"trial_type": "html-button-response",
			"trial_index": 45,
			"time_elapsed": 561861,
			"plugin_version": "2.0.0"
		},
		{
			"rt": 27434,
			"response": 0,
			"stimulus": "\n      <div style=\"display: flex; flex-direction: column; align-items: center; justify-content: center; gap: 20px; max-width: 90vw; margin: auto;\">\n          <img src=\"https://raw.githubusercontent.com/rondeline/metanoise/master/img/floatinghead.png\" style=\"width: 20vw; max-width: 200px; height: auto;\">\n      </div>\n    ",
			"trial_type": "html-button-response",
			"trial_index": 46,
			"time_elapsed": 589297,
			"plugin_version": "2.0.0"
		},
		{
			"rt": 9687,
			"response": 0,
			"stimulus": "\n      <div style=\"display: flex; flex-direction: column; align-items: center; justify-content: center; gap: 20px; max-width: 90vw; margin: auto;\">\n          <img src=\"https://raw.githubusercontent.com/rondeline/metanoise/master/img/floatinghead.png\" style=\"width: 20vw; max-width: 200px; height: auto;\">\n      </div>\n    ",
			"trial_type": "html-button-response",
			"trial_index": 47,
			"time_elapsed": 598986,
			"plugin_version": "2.0.0"
		},
		{
			"trial_type": "stop-record-plugin",
			"trial_index": 48,
			"time_elapsed": 665714,
			"plugin_version": null
		},
		{
			"rt": 23415,
			"response": 0,
			"stimulus": "\n      <div style=\"display: flex; flex-direction: column; align-items: center; justify-content: center; gap: 20px; max-width: 90vw; margin: auto;\">\n          <img src=\"https://raw.githubusercontent.com/rondeline/metanoise/master/img/floatinghead.png\" style=\"width: 20vw; max-width: 200px; height: auto;\">\n      </div>\n    ",
			"trial_type": "html-button-response",
			"trial_index": 49,
			"time_elapsed": 689131,
			"plugin_version": "2.0.0"
		},
		{
			"rt": null,
			"response": null,
			"stimulus": [
				"https://raw.githubusercontent.com/rondeline/metanoise/master/mp4/RMS70_underthesea.mp4"
			],
			"trial_type": "video-button-response",
			"trial_index": 50,
			"time_elapsed": 707296,
			"plugin_version": "2.0.0"
		},
		{
			"rt": 11843,
			"response": 0,
			"stimulus": "\n        <img src=\"https://raw.githubusercontent.com/rondeline/metanoise/master/img/floatinghead.png\" style=\"position: absolute; top: 75px; left: 0px; width: 250px;\">\n    ",
			"trial_type": "html-button-response",
			"trial_index": 51,
			"time_elapsed": 719141,
			"plugin_version": "2.0.0"
		},
		{
			"rt": 24809,
			"chs_type": "consent",
			"response": {
				"race": [
					"Caucasian/White"
				],
				"email": "jrelkin17@gmail.com",
				"english": "All of the time",
				"counting": "Know their numbers and can count to at least 10",
				"education": "Master's degree"
			},
			"trial_type": "survey",
			"trial_index": 52,
			"time_elapsed": 744018,
			"plugin_version": "2.0.0"
		},
		{
			"rt": 10282,
			"chs_type": "exit",
			"response": {
				"feedback": null,
				"birthDate": "2020-09-14",
				"useOfMedia": "scientific",
				"withdrawal": false,
				"databraryShare": "yes"
			},
			"trial_type": "survey",
			"trial_index": 53,
			"time_elapsed": 754348,
			"plugin_version": "2.0.0"
		},
		{
			"rt": 3839,
			"chs_type": "consent",
			"response": {
				"question1": null,
				"question2": null,
				"question3": null
			},
			"trial_type": "survey",
			"trial_index": 54,
			"time_elapsed": 758207,
			"plugin_version": "2.0.0"
		}
	]
},
{
	"response": {
		"id": "317383",
		"uuid": "768a46c5-1034-46b0-8b3a-97e508fe0b94",
		"date_created": "2025-04-25 22:03:26.518614+00:00",
		"completed": true,
		"withdrawn": false,
		"eligibility": [
			"Eligible"
		],
		"parent_feedback": null,
		"birthdate_difference": 0,
		"video_privacy": "private",
		"databrary": "yes",
		"is_preview": false,
		"sequence": [
			"0-preload",
			"1-preload",
			"2-preload",
			"3-html-button-response",
			"4-video-config-plugin",
			"5-consent-video",
			"6-survey",
			"7-video-button-response",
			"8-html-button-response",
			"10-html-button-response",
			"11-start-record-plugin",
			"12-html-button-response",
			"13-html-button-response",
			"14-html-button-response",
			"15-video-button-response",
			"16-html-button-response",
			"17-video-button-response",
			"18-html-button-response",
			"19-html-button-response",
			"20-html-button-response",
			"21-html-button-response",
			"22-html-button-response",
			"23-html-button-response",
			"24-html-button-response",
			"25-html-button-response",
			"26-video-button-response",
			"27-html-button-response",
			"28-html-keyboard-response",
			"29-html-button-response",
			"30-html-button-response",
			"31-video-button-response",
			"32-html-button-response",
			"33-video-button-response",
			"34-html-keyboard-response",
			"35-html-button-response",
			"36-html-button-response",
			"37-html-button-response",
			"38-html-button-response",
			"39-html-button-response",
			"40-html-button-response",
			"41-html-button-response",
			"42-html-button-response",
			"43-html-keyboard-response",
			"44-video-button-response",
			"45-html-button-response",
			"46-html-button-response",
			"47-html-button-response",
			"48-stop-record-plugin",
			"49-html-button-response",
			"50-video-button-response",
			"51-html-button-response",
			"52-survey",
			"53-survey",
			"54-survey"
		],
		"conditions": [],
		"researcher_payment_status": "",
		"researcher_session_status": "",
		"researcher_star": false
	},
	"consent": {
		"ruling": "accepted",
		"arbiter": "Rondeline  Williams",
		"time": "2025-04-27 02:34",
		"comment": null
	},
	"study": {
		"uuid": "f713a0cc-903f-4f62-8566-dfc7fceaf350"
	},
	"participant": {
		"hashed_id": "YWUEcR"
	},
	"child": {
		"hashed_id": "VX3NEJ",
		"age_rounded": "1530",
		"gender": "f",
		"age_at_birth": "40 or more weeks",
		"language_list": "en",
		"condition_list": "",
		"additional_information": ""
	},
	"exp_data": [
		{
			"success": true,
			"timeout": false,
			"trial_type": "preload",
			"trial_index": 0,
			"failed_audio": [],
			"failed_video": [],
			"time_elapsed": 2365,
			"failed_images": [],
			"plugin_version": "2.0.0"
		},
		{
			"success": true,
			"timeout": false,
			"trial_type": "preload",
			"trial_index": 1,
			"failed_audio": [],
			"failed_video": [],
			"time_elapsed": 16391,
			"failed_images": [],
			"plugin_version": "2.0.0"
		},
		{
			"success": true,
			"timeout": false,
			"trial_type": "preload",
			"trial_index": 2,
			"failed_audio": [],
			"failed_video": [],
			"time_elapsed": 41062,
			"failed_images": [],
			"plugin_version": "2.0.0"
		},
		{
			"rt": 7759,
			"response": 0,
			"stimulus": "Welcome! Press \"next\" to continue.",
			"trial_type": "html-button-response",
			"trial_index": 3,
			"time_elapsed": 48825,
			"plugin_version": "2.0.0"
		},
		{
			"rt": 37431,
			"camId": "b46970e72d2b46272e5e677ff3f6d3956d5d5a0e5703afb60e5ea2dcd0bcaf6f",
			"micId": "b3f9c62a00422ae83a5d32dcdca9fc227377e71bb89d5e2f6d2dc04bf3a71a20",
			"trial_type": "video-config-plugin",
			"trial_index": 4,
			"time_elapsed": 86291,
			"plugin_version": "3.0.1"
		},
		{
			"chs_type": "consent",
			"trial_type": "consent-video",
			"trial_index": 5,
			"time_elapsed": 129750,
			"plugin_version": "3.0.1"
		},
		{
			"rt": 12662,
			"chs_type": "consent",
			"response": {
				"audio": null,
				"video": null,
				"Ready?": null,
				"question1": null
			},
			"trial_type": "survey",
			"trial_index": 6,
			"time_elapsed": 142541,
			"plugin_version": "2.0.0"
		},
		{
			"rt": null,
			"response": null,
			"stimulus": [
				"https://raw.githubusercontent.com/rondeline/metanoise/master/mp4/directions.mp4"
			],
			"trial_type": "video-button-response",
			"trial_index": 7,
			"time_elapsed": 175844,
			"plugin_version": "2.0.0"
		},
		{
			"rt": 25934,
			"response": 0,
			"stimulus": "\n      <div style=\"display: flex; flex-direction: column; align-items: center; justify-content: center; gap: 40px; max-width: 90vw; margin: auto; margin-bottom: 50px;\">\n          <img src=\"https://raw.githubusercontent.com/rondeline/metanoise/master/img/floatinghead.png\" style=\"width: 20vw; max-width: 200px; height: auto;\">\n      </div>\n    ",
			"trial_type": "html-button-response",
			"trial_index": 8,
			"time_elapsed": 201785,
			"plugin_version": "2.0.0"
		},
		{
			"trial_type": "html-button-response",
			"trial_index": 10,
			"time_elapsed": 214643,
			"plugin_version": "2.0.0"
		},
		{
			"trial_type": "start-record-plugin",
			"trial_index": 11,
			"time_elapsed": 215112,
			"plugin_version": null
		},
		{
			"trial_type": "html-button-response",
			"trial_index": 12,
			"time_elapsed": 221181,
			"plugin_version": "2.0.0"
		},
		{
			"trial_type": "html-button-response",
			"trial_index": 13,
			"time_elapsed": 240043,
			"plugin_version": "2.0.0"
		},
		{
			"trial_type": "html-button-response",
			"trial_index": 14,
			"time_elapsed": 266640,
			"plugin_version": "2.0.0",
			"correct_response": 2
		},
		{
			"rt": 12254,
			"response": 0,
			"stimulus": [
				"https://raw.githubusercontent.com/rondeline/metanoise/master/mp4/RMS70_gotit.mp4"
			],
			"trial_type": "video-button-response",
			"trial_index": 15,
			"time_elapsed": 278896,
			"plugin_version": "2.0.0"
		},
		{
			"trial_type": "html-button-response",
			"trial_index": 16,
			"time_elapsed": 293056,
			"plugin_version": "2.0.0",
			"correct_response": 0
		},
		{
			"rt": 8269,
			"response": 0,
			"stimulus": [
				"https://raw.githubusercontent.com/rondeline/metanoise/master/mp4/RMS70_readytoplay.mp4"
			],
			"trial_type": "video-button-response",
			"trial_index": 17,
			"time_elapsed": 301328,
			"plugin_version": "2.0.0"
		},
		{
			"rt": 14381,
			"response": 7,
			"stimulus": "\n    <div style=\"display: flex; justify-content: center; padding: 0 5vw; max-width: 90vw; margin: 20px auto;\">\n        <img src=\"https://raw.githubusercontent.com/rondeline/metanoise/master/img/balloon.png\" style=\"max-width: 80%; height: auto;\">\n    </div>\n    ",
			"trial_type": "html-button-response",
			"trial_index": 18,
			"time_elapsed": 315712,
			"plugin_version": "2.0.0"
		},
		{
			"rt": 49261,
			"response": 4,
			"stimulus": "\n    <div style=\"display: flex; justify-content: center; padding: 0 5vw; max-width: 90vw; margin: 20px auto;\">\n        <img src=\"https://raw.githubusercontent.com/rondeline/metanoise/master/img/picture.png\" style=\"max-width: 80%; height: auto;\">\n    </div>\n    ",
			"trial_type": "html-button-response",
			"trial_index": 19,
			"time_elapsed": 364975,
			"plugin_version": "2.0.0"
		},
		{
			"rt": 16029,
			"response": 6,
			"stimulus": "\n        <div style=\"display: flex; justify-content: center; padding: 0 5vw; max-width: 90vw; margin: 20px auto;\">\n            <img src=\"https://raw.githubusercontent.com/rondeline/metanoise/master/img/flowers.png\" style=\"max-width: 80%; height: auto;\">\n        </div>\n    ",
			"trial_type": "html-button-response",
			"trial_index": 20,
			"time_elapsed": 381007,
			"plugin_version": "2.0.0"
		},
		{
			"rt": 36500,
			"response": 9,
			"stimulus": "\n    <div style=\"display: flex; justify-content: center; padding: 0 5vw; max-width: 90vw; margin: 20px auto;\">\n        <img src=\"https://raw.githubusercontent.com/rondeline/metanoise/master/img/cookies.png\" style=\"max-width: 80%; height: auto;\">\n    </div>\n    ",
			"trial_type": "html-button-response",
			"trial_index": 21,
			"time_elapsed": 417511,
			"plugin_version": "2.0.0"
		},
		{
			"rt": 22173,
			"response": 2,
			"stimulus": "\n    <div style=\"display: flex; justify-content: center; padding: 0 5vw; max-width: 90vw; margin: 20px auto;\">\n        <img src=\"https://raw.githubusercontent.com/rondeline/metanoise/master/img/crayons.png\" style=\"max-width: 80%; height: auto;\">\n    </div>\n    ",
			"trial_type": "html-button-response",
			"trial_index": 22,
			"time_elapsed": 439687,
			"extension_type": [
				"chs-trial-record-extension"
			],
			"plugin_version": "2.0.0",
			"extension_version": [
				null
			]
		},
		{
			"rt": 38702,
			"response": 4,
			"stimulus": "\n    <div style=\"display: flex; justify-content: center; padding: 0 5vw; max-width: 90vw; margin: 20px auto;\">\n        <img src=\"https://raw.githubusercontent.com/rondeline/metanoise/master/img/monkey.png\" style=\"max-width: 80%; height: auto;\">\n    </div>\n    ",
			"trial_type": "html-button-response",
			"trial_index": 23,
			"time_elapsed": 478391,
			"plugin_version": "2.0.0"
		},
		{
			"rt": 7437,
			"response": 3,
			"stimulus": "\n    <div style=\"display: flex; justify-content: center; padding: 0 5vw; max-width: 90vw; margin: 20px auto;\">\n        <img src=\"https://raw.githubusercontent.com/rondeline/metanoise/master/img/pig.png\" style=\"max-width: 80%; height: auto;\">\n    </div>\n    ",
			"trial_type": "html-button-response",
			"trial_index": 24,
			"time_elapsed": 485831,
			"plugin_version": "2.0.0"
		},
		{
			"rt": 15605,
			"response": 5,
			"stimulus": "\n    <div style=\"display: flex; justify-content: center; padding: 0 5vw; max-width: 90vw; margin: 20px auto;\">\n        <img src=\"https://raw.githubusercontent.com/rondeline/metanoise/master/img/basketball.png\" style=\"max-width: 80%; height: auto;\">\n    </div>\n    ",
			"trial_type": "html-button-response",
			"trial_index": 25,
			"time_elapsed": 501438,
			"plugin_version": "2.0.0"
		},
		{
			"rt": null,
			"response": null,
			"stimulus": [
				"https://raw.githubusercontent.com/rondeline/metanoise/master/mp4/RMS70_finished.mp4"
			],
			"trial_type": "video-button-response",
			"trial_index": 26,
			"time_elapsed": 508395,
			"plugin_version": "2.0.0"
		},
		{
			"rt": 11593,
			"response": 0,
			"stimulus": "\n      <div style=\"display: flex; flex-direction: column; align-items: center; justify-content: center; gap: 20px; max-width: 90vw; margin: auto;\">\n          <img src=\"https://raw.githubusercontent.com/rondeline/metanoise/master/img/floatinghead.png\" style=\"width: 20vw; max-width: 200px; height: auto;\">\n      </div>\n    ",
			"trial_type": "html-button-response",
			"trial_index": 27,
			"time_elapsed": 519990,
			"plugin_version": "2.0.0"
		},
		{
			"trial_type": "html-keyboard-response",
			"trial_index": 28,
			"time_elapsed": 531710,
			"plugin_version": "2.0.0"
		},
		{
			"trial_type": "html-button-response",
			"trial_index": 29,
			"time_elapsed": 544431,
			"plugin_version": "2.0.0"
		},
		{
			"trial_type": "html-button-response",
			"trial_index": 30,
			"time_elapsed": 581366,
			"plugin_version": "2.0.0",
			"correct_response": 3
		},
		{
			"rt": 8518,
			"response": 0,
			"stimulus": [
				"https://raw.githubusercontent.com/rondeline/metanoise/master/mp4/RMS70_gotit.mp4"
			],
			"trial_type": "video-button-response",
			"trial_index": 31,
			"time_elapsed": 589886,
			"plugin_version": "2.0.0"
		},
		{
			"trial_type": "html-button-response",
			"trial_index": 32,
			"time_elapsed": 603646,
			"plugin_version": "2.0.0",
			"correct_response": 1
		},
		{
			"rt": 12909,
			"response": 0,
			"stimulus": [
				"https://raw.githubusercontent.com/rondeline/metanoise/master/mp4/RMS70_readytoplay.mp4"
			],
			"trial_type": "video-button-response",
			"trial_index": 33,
			"time_elapsed": 616558,
			"plugin_version": "2.0.0"
		},
		{
			"rt": null,
			"response": null,
			"stimulus": "<p>Get ready!</p>",
			"trial_type": "html-keyboard-response",
			"trial_index": 34,
			"time_elapsed": 617061,
			"plugin_version": "2.0.0"
		},
		{
			"rt": 36303,
			"response": 2,
			"stimulus": "\n    <div style=\"display: flex; justify-content: center; padding: 0 5vw; max-width: 90vw; margin: 20px auto;\">\n        <img src=\"https://raw.githubusercontent.com/rondeline/metanoise/master/img/flower_picture.png\" style=\"max-width: 80%; height: auto;\">\n    </div>",
			"trial_type": "html-button-response",
			"trial_index": 35,
			"time_elapsed": 653366,
			"plugin_version": "2.0.0"
		},
		{
			"rt": 19454,
			"response": 2,
			"stimulus": "\n    <div style=\"display: flex; justify-content: center; width: 90vw; margin: 20px auto;\">\n        <img src=\"https://raw.githubusercontent.com/rondeline/metanoise/master/img/door_picture.png\" style=\"width: 75%; height: auto; max-width: none;\">\n    </div>",
			"trial_type": "html-button-response",
			"trial_index": 36,
			"time_elapsed": 672822,
			"plugin_version": "2.0.0"
		},
		{
			"rt": 13877,
			"response": 0,
			"stimulus": "\n    <div style=\"display: flex; justify-content: center; padding: 0 5vw; max-width: 90vw; margin: 20px auto;\">\n        <img src=\"https://raw.githubusercontent.com/rondeline/metanoise/master/img/tree_picture.png\" style=\"max-width: 80%; height: auto;\">\n    </div>",
			"trial_type": "html-button-response",
			"trial_index": 37,
			"time_elapsed": 686702,
			"plugin_version": "2.0.0"
		},
		{
			"rt": 14758,
			"response": 2,
			"stimulus": "\n    <div style=\"display: flex; justify-content: center; width: 90vw; margin: 20px auto;\">\n        <img src=\"https://raw.githubusercontent.com/rondeline/metanoise/master/img/fish_picture.png\" style=\"width: 65%; height: auto; max-width: none;\">\n    </div>",
			"trial_type": "html-button-response",
			"trial_index": 38,
			"time_elapsed": 701462,
			"plugin_version": "2.0.0"
		},
		{
			"rt": 9181,
			"response": 3,
			"stimulus": "\n    <div style=\"display: flex; justify-content: center; width: 90vw; margin: 20px auto;\">\n        <img src=\"https://raw.githubusercontent.com/rondeline/metanoise/master/img/scissors_picture.png\" style=\"width: 70%; height: auto; max-width: none;\">\n    </div>",
			"trial_type": "html-button-response",
			"trial_index": 39,
			"time_elapsed": 710645,
			"plugin_version": "2.0.0"
		},
		{
			"rt": 9334,
			"response": 1,
			"stimulus": "\n    <div style=\"display: flex; justify-content: center; padding: 0 5vw; max-width: 90vw; margin: 20px auto;\">\n        <img src=\"https://raw.githubusercontent.com/rondeline/metanoise/master/img/cat_picture.png\" style=\"max-width: 80%; height: auto;\">\n    </div>",
			"trial_type": "html-button-response",
			"trial_index": 40,
			"time_elapsed": 719982,
			"plugin_version": "2.0.0"
		},
		{
			"rt": 14886,
			"response": 3,
			"stimulus": "\n    <div style=\"display: flex; justify-content: center; width: 90vw; margin: 20px auto;\">\n        <img src=\"https://raw.githubusercontent.com/rondeline/metanoise/master/img/bowl_picture.png\" style=\"width: 70%; height: auto; max-width: none;\">\n    </div>",
			"trial_type": "html-button-response",
			"trial_index": 41,
			"time_elapsed": 734870,
			"plugin_version": "2.0.0"
		},
		{
			"rt": 5324,
			"response": 3,
			"stimulus": "\n    <div style=\"display: flex; justify-content: center; width: 90vw; margin: 20px auto;\">\n        <img src=\"https://raw.githubusercontent.com/rondeline/metanoise/master/img/pot_picture.png\" style=\"width: 70%; height: auto; max-width: none;\">\n    </div>",
			"trial_type": "html-button-response",
			"trial_index": 42,
			"time_elapsed": 740197,
			"plugin_version": "2.0.0"
		},
		{
			"rt": null,
			"response": null,
			"stimulus": "<p>Trials complete! Please wait...</p>",
			"trial_type": "html-keyboard-response",
			"trial_index": 43,
			"time_elapsed": 740701,
			"plugin_version": "2.0.0"
		},
		{
			"rt": null,
			"response": null,
			"stimulus": [
				"https://raw.githubusercontent.com/rondeline/metanoise/master/mp4/RMS70_finished.mp4"
			],
			"trial_type": "video-button-response",
			"trial_index": 44,
			"time_elapsed": 747659,
			"plugin_version": "2.0.0"
		},
		{
			"rt": 6369,
			"response": 0,
			"stimulus": "\n      <div style=\"display: flex; flex-direction: column; align-items: center; justify-content: center; gap: 20px; max-width: 90vw; margin: auto;\">\n          <img src=\"https://raw.githubusercontent.com/rondeline/metanoise/master/img/floatinghead.png\" style=\"width: 20vw; max-width: 200px; height: auto;\">\n      </div>\n    ",
			"trial_type": "html-button-response",
			"trial_index": 45,
			"time_elapsed": 754029,
			"plugin_version": "2.0.0"
		},
		{
			"rt": 26085,
			"response": 0,
			"stimulus": "\n      <div style=\"display: flex; flex-direction: column; align-items: center; justify-content: center; gap: 20px; max-width: 90vw; margin: auto;\">\n          <img src=\"https://raw.githubusercontent.com/rondeline/metanoise/master/img/floatinghead.png\" style=\"width: 20vw; max-width: 200px; height: auto;\">\n      </div>\n    ",
			"trial_type": "html-button-response",
			"trial_index": 46,
			"time_elapsed": 780117,
			"plugin_version": "2.0.0"
		},
		{
			"rt": 7543,
			"response": 1,
			"stimulus": "\n      <div style=\"display: flex; flex-direction: column; align-items: center; justify-content: center; gap: 20px; max-width: 90vw; margin: auto;\">\n          <img src=\"https://raw.githubusercontent.com/rondeline/metanoise/master/img/floatinghead.png\" style=\"width: 20vw; max-width: 200px; height: auto;\">\n      </div>\n    ",
			"trial_type": "html-button-response",
			"trial_index": 47,
			"time_elapsed": 787661,
			"plugin_version": "2.0.0"
		},
		{
			"trial_type": "stop-record-plugin",
			"trial_index": 48,
			"time_elapsed": 815247,
			"plugin_version": null
		},
		{
			"rt": 23498,
			"response": 0,
			"stimulus": "\n      <div style=\"display: flex; flex-direction: column; align-items: center; justify-content: center; gap: 20px; max-width: 90vw; margin: auto;\">\n          <img src=\"https://raw.githubusercontent.com/rondeline/metanoise/master/img/floatinghead.png\" style=\"width: 20vw; max-width: 200px; height: auto;\">\n      </div>\n    ",
			"trial_type": "html-button-response",
			"trial_index": 49,
			"time_elapsed": 838749,
			"plugin_version": "2.0.0"
		},
		{
			"rt": null,
			"response": null,
			"stimulus": [
				"https://raw.githubusercontent.com/rondeline/metanoise/master/mp4/RMS70_underthesea.mp4"
			],
			"trial_type": "video-button-response",
			"trial_index": 50,
			"time_elapsed": 856886,
			"plugin_version": "2.0.0"
		},
		{
			"rt": 15151,
			"response": 0,
			"stimulus": "\n        <img src=\"https://raw.githubusercontent.com/rondeline/metanoise/master/img/floatinghead.png\" style=\"position: absolute; top: 75px; left: 0px; width: 250px;\">\n    ",
			"trial_type": "html-button-response",
			"trial_index": 51,
			"time_elapsed": 872045,
			"plugin_version": "2.0.0"
		},
		{
			"rt": 29502,
			"chs_type": "consent",
			"response": {
				"race": [
					"Caucasian/White",
					"African/Black"
				],
				"email": "hkudadze@live.com",
				"english": "All of the time",
				"counting": "Know their numbers and can count to at least 10",
				"education": "Graduate or professional degree"
			},
			"trial_type": "survey",
			"trial_index": 52,
			"time_elapsed": 901604,
			"plugin_version": "2.0.0"
		},
		{
			"rt": 10979,
			"chs_type": "exit",
			"response": {
				"feedback": null,
				"birthDate": "2021-02-27",
				"useOfMedia": "private",
				"withdrawal": false,
				"databraryShare": "yes"
			},
			"trial_type": "survey",
			"trial_index": 53,
			"time_elapsed": 912630,
			"plugin_version": "2.0.0"
		},
		{
			"rt": 2748,
			"chs_type": "consent",
			"response": {
				"question1": null,
				"question2": null,
				"question3": null
			},
			"trial_type": "survey",
			"trial_index": 54,
			"time_elapsed": 915395,
			"plugin_version": "2.0.0"
		}
	]
},
{
	"response": {
		"id": "317385",
		"uuid": "75bbabd2-c534-4297-b895-0679df471739",
		"date_created": "2025-04-25 22:10:50.784328+00:00",
		"completed": true,
		"withdrawn": false,
		"eligibility": [
			"Eligible"
		],
		"parent_feedback": "On the second practice trial of the picture game, it wouldn't let us advance unless she got it right but it wasn't clear what I (the parent) was supposed to do - i.e., just ask her again, tell her it was wrong, etc. For the counting task, on one of them she counted to 16 (she said the donuts were the same as cookies and couldn't quite count those) but the options only went to 10... so I clicked 10... ",
		"birthdate_difference": 0,
		"video_privacy": "scientific",
		"databrary": "yes",
		"is_preview": false,
		"sequence": [
			"0-preload",
			"1-preload",
			"2-preload",
			"3-html-button-response",
			"4-video-config-plugin",
			"5-consent-video",
			"6-survey",
			"7-video-button-response",
			"8-html-button-response",
			"11-start-record-plugin",
			"12-html-keyboard-response",
			"13-html-button-response",
			"14-html-button-response",
			"15-video-button-response",
			"16-html-button-response",
			"17-video-button-response",
			"18-html-keyboard-response",
			"19-html-button-response",
			"20-html-button-response",
			"21-html-button-response",
			"22-html-button-response",
			"23-html-button-response",
			"24-html-button-response",
			"25-html-button-response",
			"26-html-button-response",
			"27-html-keyboard-response",
			"28-video-button-response",
			"29-html-button-response",
			"30-html-button-response",
			"31-html-button-response",
			"32-html-button-response",
			"33-video-button-response",
			"34-html-button-response",
			"35-video-button-response",
			"36-html-button-response",
			"37-html-button-response",
			"38-html-button-response",
			"39-html-button-response",
			"40-html-button-response",
			"41-html-button-response",
			"42-html-button-response",
			"43-html-button-response",
			"44-video-button-response",
			"45-html-button-response",
			"46-html-button-response",
			"47-html-button-response",
			"48-stop-record-plugin",
			"49-html-button-response",
			"50-video-button-response",
			"51-html-button-response",
			"52-survey",
			"53-survey",
			"54-survey"
		],
		"conditions": [],
		"researcher_payment_status": "",
		"researcher_session_status": "",
		"researcher_star": false
	},
	"consent": {
		"ruling": "accepted",
		"arbiter": "Rondeline  Williams",
		"time": "2025-04-27 02:34",
		"comment": null
	},
	"study": {
		"uuid": "f713a0cc-903f-4f62-8566-dfc7fceaf350"
	},
	"participant": {
		"hashed_id": "XDAMEQ"
	},
	"child": {
		"hashed_id": "MPFH5T",
		"age_rounded": "1290",
		"gender": "f",
		"age_at_birth": "37 weeks",
		"language_list": "en",
		"condition_list": "",
		"additional_information": ""
	},
	"exp_data": [
		{
			"success": true,
			"timeout": false,
			"trial_type": "preload",
			"trial_index": 0,
			"failed_audio": [],
			"failed_video": [],
			"time_elapsed": 199,
			"failed_images": [],
			"plugin_version": "2.0.0"
		},
		{
			"success": true,
			"timeout": false,
			"trial_type": "preload",
			"trial_index": 1,
			"failed_audio": [],
			"failed_video": [],
			"time_elapsed": 724,
			"failed_images": [],
			"plugin_version": "2.0.0"
		},
		{
			"success": true,
			"timeout": false,
			"trial_type": "preload",
			"trial_index": 2,
			"failed_audio": [],
			"failed_video": [],
			"time_elapsed": 1581,
			"failed_images": [],
			"plugin_version": "2.0.0"
		},
		{
			"rt": 4262,
			"response": 0,
			"stimulus": "Welcome! Press \"next\" to continue.",
			"trial_type": "html-button-response",
			"trial_index": 3,
			"time_elapsed": 5844,
			"plugin_version": "2.0.0"
		},
		{
			"rt": 10090,
			"camId": "2e2e47061067d304b64071dc70e261d7b988cce187ce209cfba7abf62f444b75",
			"micId": "5d2a199f7305ee0a323066795b4a287acb75630bb5f5661e15f47e184d98dc45",
			"trial_type": "video-config-plugin",
			"trial_index": 4,
			"time_elapsed": 15956,
			"plugin_version": "3.0.1"
		},
		{
			"chs_type": "consent",
			"trial_type": "consent-video",
			"trial_index": 5,
			"time_elapsed": 42475,
			"plugin_version": "3.0.1"
		},
		{
			"rt": 34776,
			"chs_type": "consent",
			"response": {
				"audio": null,
				"video": null,
				"Ready?": null,
				"question1": null
			},
			"trial_type": "survey",
			"trial_index": 6,
			"time_elapsed": 77281,
			"plugin_version": "2.0.0"
		},
		{
			"rt": null,
			"response": null,
			"stimulus": [
				"https://raw.githubusercontent.com/rondeline/metanoise/master/mp4/directions.mp4"
			],
			"trial_type": "video-button-response",
			"trial_index": 7,
			"time_elapsed": 110554,
			"plugin_version": "2.0.0"
		},
		{
			"rt": 18199,
			"response": 0,
			"stimulus": "\n      <div style=\"display: flex; flex-direction: column; align-items: center; justify-content: center; gap: 40px; max-width: 90vw; margin: auto; margin-bottom: 50px;\">\n          <img src=\"https://raw.githubusercontent.com/rondeline/metanoise/master/img/floatinghead.png\" style=\"width: 20vw; max-width: 200px; height: auto;\">\n      </div>\n    ",
			"trial_type": "html-button-response",
			"trial_index": 8,
			"time_elapsed": 128756,
			"plugin_version": "2.0.0"
		},
		{
			"trial_type": "html-button-response",
			"trial_index": 10,
			"time_elapsed": 141422,
			"plugin_version": "2.0.0"
		},
		{
			"trial_type": "start-record-plugin",
			"trial_index": 11,
			"time_elapsed": 141555,
			"plugin_version": null
		},
		{
			"trial_type": "html-keyboard-response",
			"trial_index": 12,
			"time_elapsed": 153190,
			"plugin_version": "2.0.0"
		},
		{
			"trial_type": "html-button-response",
			"trial_index": 13,
			"time_elapsed": 165811,
			"plugin_version": "2.0.0"
		},
		{
			"trial_type": "html-button-response",
			"trial_index": 14,
			"time_elapsed": 201915,
			"plugin_version": "2.0.0",
			"correct_response": 3
		},
		{
			"rt": 7285,
			"response": 0,
			"stimulus": [
				"https://raw.githubusercontent.com/rondeline/metanoise/master/mp4/RMS70_gotit.mp4"
			],
			"trial_type": "video-button-response",
			"trial_index": 15,
			"time_elapsed": 209203,
			"plugin_version": "2.0.0"
		},
		{
			"trial_type": "html-button-response",
			"trial_index": 16,
			"time_elapsed": 279656,
			"plugin_version": "2.0.0",
			"correct_response": 1
		},
		{
			"rt": 52210,
			"response": 0,
			"stimulus": [
				"https://raw.githubusercontent.com/rondeline/metanoise/master/mp4/RMS70_readytoplay.mp4"
			],
			"trial_type": "video-button-response",
			"trial_index": 17,
			"time_elapsed": 331869,
			"plugin_version": "2.0.0"
		},
		{
			"rt": null,
			"response": null,
			"stimulus": "<p>Get ready!</p>",
			"trial_type": "html-keyboard-response",
			"trial_index": 18,
			"time_elapsed": 332372,
			"plugin_version": "2.0.0"
		},
		{
			"rt": 17275,
			"response": 0,
			"stimulus": "\n    <div style=\"display: flex; justify-content: center; padding: 0 5vw; max-width: 90vw; margin: 20px auto;\">\n        <img src=\"https://raw.githubusercontent.com/rondeline/metanoise/master/img/cat_picture.png\" style=\"max-width: 80%; height: auto;\">\n    </div>",
			"trial_type": "html-button-response",
			"trial_index": 19,
			"time_elapsed": 349648,
			"plugin_version": "2.0.0"
		},
		{
			"rt": 13018,
			"response": 3,
			"stimulus": "\n    <div style=\"display: flex; justify-content: center; width: 90vw; margin: 20px auto;\">\n        <img src=\"https://raw.githubusercontent.com/rondeline/metanoise/master/img/bowl_picture.png\" style=\"width: 70%; height: auto; max-width: none;\">\n    </div>",
			"trial_type": "html-button-response",
			"trial_index": 20,
			"time_elapsed": 362668,
			"plugin_version": "2.0.0"
		},
		{
			"rt": 9697,
			"response": 2,
			"stimulus": "\n    <div style=\"display: flex; justify-content: center; width: 90vw; margin: 20px auto;\">\n        <img src=\"https://raw.githubusercontent.com/rondeline/metanoise/master/img/fish_picture.png\" style=\"width: 65%; height: auto; max-width: none;\">\n    </div>",
			"trial_type": "html-button-response",
			"trial_index": 21,
			"time_elapsed": 372368,
			"plugin_version": "2.0.0"
		},
		{
			"rt": 14501,
			"response": 0,
			"stimulus": "\n    <div style=\"display: flex; justify-content: center; width: 90vw; margin: 20px auto;\">\n        <img src=\"https://raw.githubusercontent.com/rondeline/metanoise/master/img/door_picture.png\" style=\"width: 75%; height: auto; max-width: none;\">\n    </div>",
			"trial_type": "html-button-response",
			"trial_index": 22,
			"time_elapsed": 386871,
			"plugin_version": "2.0.0"
		},
		{
			"rt": 9458,
			"response": 2,
			"stimulus": "\n    <div style=\"display: flex; justify-content: center; padding: 0 5vw; max-width: 90vw; margin: 20px auto;\">\n        <img src=\"https://raw.githubusercontent.com/rondeline/metanoise/master/img/tree_picture.png\" style=\"max-width: 80%; height: auto;\">\n    </div>",
			"trial_type": "html-button-response",
			"trial_index": 23,
			"time_elapsed": 396331,
			"plugin_version": "2.0.0"
		},
		{
			"rt": 9935,
			"response": 2,
			"stimulus": "\n    <div style=\"display: flex; justify-content: center; padding: 0 5vw; max-width: 90vw; margin: 20px auto;\">\n        <img src=\"https://raw.githubusercontent.com/rondeline/metanoise/master/img/flower_picture.png\" style=\"max-width: 80%; height: auto;\">\n    </div>",
			"trial_type": "html-button-response",
			"trial_index": 24,
			"time_elapsed": 406268,
			"plugin_version": "2.0.0"
		},
		{
			"rt": 8974,
			"response": 1,
			"stimulus": "\n    <div style=\"display: flex; justify-content: center; width: 90vw; margin: 20px auto;\">\n        <img src=\"https://raw.githubusercontent.com/rondeline/metanoise/master/img/pot_picture.png\" style=\"width: 70%; height: auto; max-width: none;\">\n    </div>",
			"trial_type": "html-button-response",
			"trial_index": 25,
			"time_elapsed": 415244,
			"plugin_version": "2.0.0"
		},
		{
			"rt": 10905,
			"response": 1,
			"stimulus": "\n    <div style=\"display: flex; justify-content: center; width: 90vw; margin: 20px auto;\">\n        <img src=\"https://raw.githubusercontent.com/rondeline/metanoise/master/img/scissors_picture.png\" style=\"width: 70%; height: auto; max-width: none;\">\n    </div>",
			"trial_type": "html-button-response",
			"trial_index": 26,
			"time_elapsed": 426151,
			"plugin_version": "2.0.0"
		},
		{
			"rt": null,
			"response": null,
			"stimulus": "<p>Trials complete! Please wait...</p>",
			"trial_type": "html-keyboard-response",
			"trial_index": 27,
			"time_elapsed": 426653,
			"plugin_version": "2.0.0"
		},
		{
			"rt": null,
			"response": null,
			"stimulus": [
				"https://raw.githubusercontent.com/rondeline/metanoise/master/mp4/RMS70_finished.mp4"
			],
			"trial_type": "video-button-response",
			"trial_index": 28,
			"time_elapsed": 433619,
			"plugin_version": "2.0.0"
		},
		{
			"rt": 14394,
			"response": 0,
			"stimulus": "\n      <div style=\"display: flex; flex-direction: column; align-items: center; justify-content: center; gap: 20px; max-width: 90vw; margin: auto;\">\n          <img src=\"https://raw.githubusercontent.com/rondeline/metanoise/master/img/floatinghead.png\" style=\"width: 20vw; max-width: 200px; height: auto;\">\n      </div>\n    ",
			"trial_type": "html-button-response",
			"trial_index": 29,
			"time_elapsed": 448026,
			"plugin_version": "2.0.0"
		},
		{
			"trial_type": "html-button-response",
			"trial_index": 30,
			"time_elapsed": 453948,
			"plugin_version": "2.0.0"
		},
		{
			"trial_type": "html-button-response",
			"trial_index": 31,
			"time_elapsed": 472551,
			"plugin_version": "2.0.0"
		},
		{
			"trial_type": "html-button-response",
			"trial_index": 32,
			"time_elapsed": 489165,
			"plugin_version": "2.0.0",
			"correct_response": 2
		},
		{
			"rt": 7601,
			"response": 0,
			"stimulus": [
				"https://raw.githubusercontent.com/rondeline/metanoise/master/mp4/RMS70_gotit.mp4"
			],
			"trial_type": "video-button-response",
			"trial_index": 33,
			"time_elapsed": 496769,
			"plugin_version": "2.0.0"
		},
		{
			"trial_type": "html-button-response",
			"trial_index": 34,
			"time_elapsed": 507757,
			"plugin_version": "2.0.0",
			"correct_response": 0
		},
		{
			"rt": 9547,
			"response": 0,
			"stimulus": [
				"https://raw.githubusercontent.com/rondeline/metanoise/master/mp4/RMS70_readytoplay.mp4"
			],
			"trial_type": "video-button-response",
			"trial_index": 35,
			"time_elapsed": 517307,
			"plugin_version": "2.0.0"
		},
		{
			"rt": 11674,
			"response": 4,
			"stimulus": "\n    <div style=\"display: flex; justify-content: center; padding: 0 5vw; max-width: 90vw; margin: 20px auto;\">\n        <img src=\"https://raw.githubusercontent.com/rondeline/metanoise/master/img/monkey.png\" style=\"max-width: 80%; height: auto;\">\n    </div>\n    ",
			"trial_type": "html-button-response",
			"trial_index": 36,
			"time_elapsed": 528983,
			"plugin_version": "2.0.0"
		},
		{
			"rt": 8914,
			"response": 3,
			"stimulus": "\n    <div style=\"display: flex; justify-content: center; padding: 0 5vw; max-width: 90vw; margin: 20px auto;\">\n        <img src=\"https://raw.githubusercontent.com/rondeline/metanoise/master/img/pig.png\" style=\"max-width: 80%; height: auto;\">\n    </div>\n    ",
			"trial_type": "html-button-response",
			"trial_index": 37,
			"time_elapsed": 537899,
			"plugin_version": "2.0.0"
		},
		{
			"rt": 8064,
			"response": 2,
			"stimulus": "\n    <div style=\"display: flex; justify-content: center; padding: 0 5vw; max-width: 90vw; margin: 20px auto;\">\n        <img src=\"https://raw.githubusercontent.com/rondeline/metanoise/master/img/crayons.png\" style=\"max-width: 80%; height: auto;\">\n    </div>\n    ",
			"trial_type": "html-button-response",
			"trial_index": 38,
			"time_elapsed": 545964,
			"extension_type": [
				"chs-trial-record-extension"
			],
			"plugin_version": "2.0.0",
			"extension_version": [
				null
			]
		},
		{
			"rt": 9461,
			"response": 5,
			"stimulus": "\n        <div style=\"display: flex; justify-content: center; padding: 0 5vw; max-width: 90vw; margin: 20px auto;\">\n            <img src=\"https://raw.githubusercontent.com/rondeline/metanoise/master/img/flowers.png\" style=\"max-width: 80%; height: auto;\">\n        </div>\n    ",
			"trial_type": "html-button-response",
			"trial_index": 39,
			"time_elapsed": 555427,
			"plugin_version": "2.0.0"
		},
		{
			"rt": 10640,
			"response": 7,
			"stimulus": "\n    <div style=\"display: flex; justify-content: center; padding: 0 5vw; max-width: 90vw; margin: 20px auto;\">\n        <img src=\"https://raw.githubusercontent.com/rondeline/metanoise/master/img/balloon.png\" style=\"max-width: 80%; height: auto;\">\n    </div>\n    ",
			"trial_type": "html-button-response",
			"trial_index": 40,
			"time_elapsed": 566069,
			"plugin_version": "2.0.0"
		},
		{
			"rt": 11687,
			"response": 6,
			"stimulus": "\n    <div style=\"display: flex; justify-content: center; padding: 0 5vw; max-width: 90vw; margin: 20px auto;\">\n        <img src=\"https://raw.githubusercontent.com/rondeline/metanoise/master/img/picture.png\" style=\"max-width: 80%; height: auto;\">\n    </div>\n    ",
			"trial_type": "html-button-response",
			"trial_index": 41,
			"time_elapsed": 577759,
			"plugin_version": "2.0.0"
		},
		{
			"rt": 48172,
			"response": 9,
			"stimulus": "\n    <div style=\"display: flex; justify-content: center; padding: 0 5vw; max-width: 90vw; margin: 20px auto;\">\n        <img src=\"https://raw.githubusercontent.com/rondeline/metanoise/master/img/cookies.png\" style=\"max-width: 80%; height: auto;\">\n    </div>\n    ",
			"trial_type": "html-button-response",
			"trial_index": 42,
			"time_elapsed": 625934,
			"plugin_version": "2.0.0"
		},
		{
			"rt": 18523,
			"response": 1,
			"stimulus": "\n    <div style=\"display: flex; justify-content: center; padding: 0 5vw; max-width: 90vw; margin: 20px auto;\">\n        <img src=\"https://raw.githubusercontent.com/rondeline/metanoise/master/img/basketball.png\" style=\"max-width: 80%; height: auto;\">\n    </div>\n    ",
			"trial_type": "html-button-response",
			"trial_index": 43,
			"time_elapsed": 644459,
			"plugin_version": "2.0.0"
		},
		{
			"rt": null,
			"response": null,
			"stimulus": [
				"https://raw.githubusercontent.com/rondeline/metanoise/master/mp4/RMS70_finished.mp4"
			],
			"trial_type": "video-button-response",
			"trial_index": 44,
			"time_elapsed": 651410,
			"plugin_version": "2.0.0"
		},
		{
			"rt": 13525,
			"response": 0,
			"stimulus": "\n      <div style=\"display: flex; flex-direction: column; align-items: center; justify-content: center; gap: 20px; max-width: 90vw; margin: auto;\">\n          <img src=\"https://raw.githubusercontent.com/rondeline/metanoise/master/img/floatinghead.png\" style=\"width: 20vw; max-width: 200px; height: auto;\">\n      </div>\n    ",
			"trial_type": "html-button-response",
			"trial_index": 45,
			"time_elapsed": 664938,
			"plugin_version": "2.0.0"
		},
		{
			"rt": 29724,
			"response": 1,
			"stimulus": "\n      <div style=\"display: flex; flex-direction: column; align-items: center; justify-content: center; gap: 20px; max-width: 90vw; margin: auto;\">\n          <img src=\"https://raw.githubusercontent.com/rondeline/metanoise/master/img/floatinghead.png\" style=\"width: 20vw; max-width: 200px; height: auto;\">\n      </div>\n    ",
			"trial_type": "html-button-response",
			"trial_index": 46,
			"time_elapsed": 694665,
			"plugin_version": "2.0.0"
		},
		{
			"rt": 9800,
			"response": 0,
			"stimulus": "\n      <div style=\"display: flex; flex-direction: column; align-items: center; justify-content: center; gap: 20px; max-width: 90vw; margin: auto;\">\n          <img src=\"https://raw.githubusercontent.com/rondeline/metanoise/master/img/floatinghead.png\" style=\"width: 20vw; max-width: 200px; height: auto;\">\n      </div>\n    ",
			"trial_type": "html-button-response",
			"trial_index": 47,
			"time_elapsed": 704466,
			"plugin_version": "2.0.0"
		},
		{
			"trial_type": "stop-record-plugin",
			"trial_index": 48,
			"time_elapsed": 711781,
			"plugin_version": null
		},
		{
			"rt": 23594,
			"response": 0,
			"stimulus": "\n      <div style=\"display: flex; flex-direction: column; align-items: center; justify-content: center; gap: 20px; max-width: 90vw; margin: auto;\">\n          <img src=\"https://raw.githubusercontent.com/rondeline/metanoise/master/img/floatinghead.png\" style=\"width: 20vw; max-width: 200px; height: auto;\">\n      </div>\n    ",
			"trial_type": "html-button-response",
			"trial_index": 49,
			"time_elapsed": 735377,
			"plugin_version": "2.0.0"
		},
		{
			"rt": null,
			"response": null,
			"stimulus": [
				"https://raw.githubusercontent.com/rondeline/metanoise/master/mp4/RMS70_underthesea.mp4"
			],
			"trial_type": "video-button-response",
			"trial_index": 50,
			"time_elapsed": 753512,
			"plugin_version": "2.0.0"
		},
		{
			"rt": 9782,
			"response": 0,
			"stimulus": "\n        <img src=\"https://raw.githubusercontent.com/rondeline/metanoise/master/img/floatinghead.png\" style=\"position: absolute; top: 75px; left: 0px; width: 250px;\">\n    ",
			"trial_type": "html-button-response",
			"trial_index": 51,
			"time_elapsed": 763296,
			"plugin_version": "2.0.0"
		},
		{
			"rt": 31356,
			"chs_type": "consent",
			"response": {
				"race": [
					"Caucasian/White"
				],
				"email": "hurst.mich@gmail.com",
				"english": "All of the time",
				"counting": "Know their numbers and can count to at least 10",
				"education": "Graduate or professional degree"
			},
			"trial_type": "survey",
			"trial_index": 52,
			"time_elapsed": 794696,
			"plugin_version": "2.0.0"
		},
		{
			"rt": 133452,
			"chs_type": "exit",
			"response": {
				"feedback": "On the second practice trial of the picture game, it wouldn't let us advance unless she got it right but it wasn't clear what I (the parent) was supposed to do - i.e., just ask her again, tell her it was wrong, etc. For the counting task, on one of them she counted to 16 (she said the donuts were the same as cookies and couldn't quite count those) but the options only went to 10... so I clicked 10... ",
				"birthDate": "2021-10-10",
				"useOfMedia": "scientific",
				"withdrawal": false,
				"databraryShare": "yes"
			},
			"trial_type": "survey",
			"trial_index": 53,
			"time_elapsed": 928163,
			"plugin_version": "2.0.0"
		},
		{
			"rt": 29710,
			"chs_type": "consent",
			"response": {
				"question1": null,
				"question2": null,
				"question3": null
			},
			"trial_type": "survey",
			"trial_index": 54,
			"time_elapsed": 957881,
			"plugin_version": "2.0.0"
		}
	]
},
{
	"response": {
		"id": "317456",
		"uuid": "8241846c-cd7e-4d5c-ad97-233baf7b21b1",
		"date_created": "2025-04-26 04:08:50.007055+00:00",
		"completed": true,
		"withdrawn": false,
		"eligibility": [
			"Eligible"
		],
		"parent_feedback": null,
		"birthdate_difference": 0,
		"video_privacy": "scientific",
		"databrary": "yes",
		"is_preview": false,
		"sequence": [
			"0-preload",
			"1-preload",
			"2-preload",
			"3-html-button-response",
			"4-video-config-plugin",
			"5-consent-video",
			"6-survey",
			"7-video-button-response",
			"8-html-button-response",
			"9-html-button-response",
			"10-html-button-response",
			"11-html-button-response",
			"12-start-record-plugin",
			"13-html-button-response",
			"14-html-button-response",
			"15-html-button-response",
			"16-video-button-response",
			"17-html-button-response",
			"18-video-button-response",
			"19-html-button-response",
			"20-html-button-response",
			"21-html-button-response",
			"22-html-button-response",
			"23-html-button-response",
			"24-html-button-response",
			"25-html-button-response",
			"26-html-button-response",
			"27-video-button-response",
			"28-html-button-response",
			"29-html-keyboard-response",
			"30-html-button-response",
			"31-html-button-response",
			"32-video-button-response",
			"33-html-button-response",
			"34-video-button-response",
			"35-html-keyboard-response",
			"36-html-button-response",
			"37-html-button-response",
			"38-html-button-response",
			"39-html-button-response",
			"40-html-button-response",
			"41-html-button-response",
			"42-html-button-response",
			"43-html-button-response",
			"44-html-keyboard-response",
			"45-video-button-response",
			"46-html-button-response",
			"47-html-button-response",
			"48-html-button-response",
			"49-stop-record-plugin",
			"50-html-button-response",
			"51-video-button-response",
			"52-html-button-response",
			"53-survey",
			"54-survey",
			"55-survey"
		],
		"conditions": [],
		"researcher_payment_status": "",
		"researcher_session_status": "",
		"researcher_star": false
	},
	"consent": {
		"ruling": "accepted",
		"arbiter": "Rondeline  Williams",
		"time": "2025-04-27 02:34",
		"comment": null
	},
	"study": {
		"uuid": "f713a0cc-903f-4f62-8566-dfc7fceaf350"
	},
	"participant": {
		"hashed_id": "KRcL7J"
	},
	"child": {
		"hashed_id": "MXMYMS",
		"age_rounded": "1620",
		"gender": "f",
		"age_at_birth": "37 weeks",
		"language_list": "en",
		"condition_list": "",
		"additional_information": ""
	},
	"exp_data": [
		{
			"success": true,
			"timeout": false,
			"trial_type": "preload",
			"trial_index": 0,
			"failed_audio": [],
			"failed_video": [],
			"time_elapsed": 1099,
			"failed_images": [],
			"plugin_version": "2.0.0"
		},
		{
			"success": true,
			"timeout": false,
			"trial_type": "preload",
			"trial_index": 1,
			"failed_audio": [],
			"failed_video": [],
			"time_elapsed": 2331,
			"failed_images": [],
			"plugin_version": "2.0.0"
		},
		{
			"success": true,
			"timeout": false,
			"trial_type": "preload",
			"trial_index": 2,
			"failed_audio": [],
			"failed_video": [],
			"time_elapsed": 3629,
			"failed_images": [],
			"plugin_version": "2.0.0"
		},
		{
			"rt": 2683,
			"response": 0,
			"stimulus": "Welcome! Press \"next\" to continue.",
			"trial_type": "html-button-response",
			"trial_index": 3,
			"time_elapsed": 6314,
			"plugin_version": "2.0.0"
		},
		{
			"rt": 26186,
			"camId": "82a0fcb845263e8d4680be74c4b2a4469f7b98be16746d976f66f868d8ac5928",
			"micId": "a93efdc8b29a457c1c8965c86f8097a33f9a8b7488f39922b9540364522533ea",
			"trial_type": "video-config-plugin",
			"trial_index": 4,
			"time_elapsed": 32532,
			"plugin_version": "3.0.1"
		},
		{
			"chs_type": "consent",
			"trial_type": "consent-video",
			"trial_index": 5,
			"time_elapsed": 69963,
			"plugin_version": "3.0.1"
		},
		{
			"rt": 54101,
			"chs_type": "consent",
			"response": {
				"audio": null,
				"video": null,
				"Ready?": null,
				"question1": null
			},
			"trial_type": "survey",
			"trial_index": 6,
			"time_elapsed": 124116,
			"plugin_version": "2.0.0"
		},
		{
			"rt": null,
			"response": null,
			"stimulus": [
				"https://raw.githubusercontent.com/rondeline/metanoise/master/mp4/directions.mp4"
			],
			"trial_type": "video-button-response",
			"trial_index": 7,
			"time_elapsed": 157384,
			"plugin_version": "2.0.0"
		},
		{
			"rt": 19707,
			"response": 1,
			"stimulus": "\n      <div style=\"display: flex; flex-direction: column; align-items: center; justify-content: center; gap: 40px; max-width: 90vw; margin: auto; margin-bottom: 50px;\">\n          <img src=\"https://raw.githubusercontent.com/rondeline/metanoise/master/img/floatinghead.png\" style=\"width: 20vw; max-width: 200px; height: auto;\">\n      </div>\n    ",
			"trial_type": "html-button-response",
			"trial_index": 8,
			"time_elapsed": 177094,
			"plugin_version": "2.0.0"
		},
		{
			"trial_type": "html-button-response",
			"trial_index": 9,
			"time_elapsed": 191242,
			"plugin_version": "2.0.0"
		},
		{
			"rt": 15909,
			"response": 0,
			"stimulus": "\n      <div style=\"display: flex; flex-direction: column; align-items: center; justify-content: center; gap: 40px; max-width: 90vw; margin: auto; margin-bottom: 50px;\">\n          <img src=\"https://raw.githubusercontent.com/rondeline/metanoise/master/img/floatinghead.png\" style=\"width: 20vw; max-width: 200px; height: auto;\">\n      </div>\n    ",
			"trial_type": "html-button-response",
			"trial_index": 10,
			"time_elapsed": 207153,
			"plugin_version": "2.0.0"
		},
		{
			"trial_type": "html-button-response",
			"trial_index": 11,
			"time_elapsed": 219913,
			"plugin_version": "2.0.0"
		},
		{
			"trial_type": "start-record-plugin",
			"trial_index": 12,
			"time_elapsed": 220357,
			"plugin_version": null
		},
		{
			"trial_type": "html-button-response",
			"trial_index": 13,
			"time_elapsed": 226338,
			"plugin_version": "2.0.0"
		},
		{
			"trial_type": "html-button-response",
			"trial_index": 14,
			"time_elapsed": 245037,
			"plugin_version": "2.0.0"
		},
		{
			"trial_type": "html-button-response",
			"trial_index": 15,
			"time_elapsed": 260970,
			"plugin_version": "2.0.0",
			"correct_response": 2
		},
		{
			"rt": 10460,
			"response": 0,
			"stimulus": [
				"https://raw.githubusercontent.com/rondeline/metanoise/master/mp4/RMS70_gotit.mp4"
			],
			"trial_type": "video-button-response",
			"trial_index": 16,
			"time_elapsed": 271431,
			"plugin_version": "2.0.0"
		},
		{
			"trial_type": "html-button-response",
			"trial_index": 17,
			"time_elapsed": 283626,
			"plugin_version": "2.0.0",
			"correct_response": 0
		},
		{
			"rt": 14023,
			"response": 0,
			"stimulus": [
				"https://raw.githubusercontent.com/rondeline/metanoise/master/mp4/RMS70_readytoplay.mp4"
			],
			"trial_type": "video-button-response",
			"trial_index": 18,
			"time_elapsed": 297650,
			"plugin_version": "2.0.0"
		},
		{
			"rt": 21157,
			"response": 3,
			"stimulus": "\n    <div style=\"display: flex; justify-content: center; padding: 0 5vw; max-width: 90vw; margin: 20px auto;\">\n        <img src=\"https://raw.githubusercontent.com/rondeline/metanoise/master/img/picture.png\" style=\"max-width: 80%; height: auto;\">\n    </div>\n    ",
			"trial_type": "html-button-response",
			"trial_index": 19,
			"time_elapsed": 318808,
			"plugin_version": "2.0.0"
		},
		{
			"rt": 53101,
			"response": 7,
			"stimulus": "\n    <div style=\"display: flex; justify-content: center; padding: 0 5vw; max-width: 90vw; margin: 20px auto;\">\n        <img src=\"https://raw.githubusercontent.com/rondeline/metanoise/master/img/balloon.png\" style=\"max-width: 80%; height: auto;\">\n    </div>\n    ",
			"trial_type": "html-button-response",
			"trial_index": 20,
			"time_elapsed": 371910,
			"plugin_version": "2.0.0"
		},
		{
			"rt": 23964,
			"response": 5,
			"stimulus": "\n    <div style=\"display: flex; justify-content: center; padding: 0 5vw; max-width: 90vw; margin: 20px auto;\">\n        <img src=\"https://raw.githubusercontent.com/rondeline/metanoise/master/img/basketball.png\" style=\"max-width: 80%; height: auto;\">\n    </div>\n    ",
			"trial_type": "html-button-response",
			"trial_index": 21,
			"time_elapsed": 395874,
			"plugin_version": "2.0.0"
		},
		{
			"rt": 20695,
			"response": 5,
			"stimulus": "\n        <div style=\"display: flex; justify-content: center; padding: 0 5vw; max-width: 90vw; margin: 20px auto;\">\n            <img src=\"https://raw.githubusercontent.com/rondeline/metanoise/master/img/flowers.png\" style=\"max-width: 80%; height: auto;\">\n        </div>\n    ",
			"trial_type": "html-button-response",
			"trial_index": 22,
			"time_elapsed": 416571,
			"plugin_version": "2.0.0"
		},
		{
			"rt": 16932,
			"response": 4,
			"stimulus": "\n    <div style=\"display: flex; justify-content: center; padding: 0 5vw; max-width: 90vw; margin: 20px auto;\">\n        <img src=\"https://raw.githubusercontent.com/rondeline/metanoise/master/img/monkey.png\" style=\"max-width: 80%; height: auto;\">\n    </div>\n    ",
			"trial_type": "html-button-response",
			"trial_index": 23,
			"time_elapsed": 433505,
			"plugin_version": "2.0.0"
		},
		{
			"rt": 13327,
			"response": 3,
			"stimulus": "\n    <div style=\"display: flex; justify-content: center; padding: 0 5vw; max-width: 90vw; margin: 20px auto;\">\n        <img src=\"https://raw.githubusercontent.com/rondeline/metanoise/master/img/pig.png\" style=\"max-width: 80%; height: auto;\">\n    </div>\n    ",
			"trial_type": "html-button-response",
			"trial_index": 24,
			"time_elapsed": 446833,
			"plugin_version": "2.0.0"
		},
		{
			"rt": 11497,
			"response": 2,
			"stimulus": "\n    <div style=\"display: flex; justify-content: center; padding: 0 5vw; max-width: 90vw; margin: 20px auto;\">\n        <img src=\"https://raw.githubusercontent.com/rondeline/metanoise/master/img/crayons.png\" style=\"max-width: 80%; height: auto;\">\n    </div>\n    ",
			"trial_type": "html-button-response",
			"trial_index": 25,
			"time_elapsed": 458331,
			"extension_type": [
				"chs-trial-record-extension"
			],
			"plugin_version": "2.0.0",
			"extension_version": [
				null
			]
		},
		{
			"rt": 35700,
			"response": 9,
			"stimulus": "\n    <div style=\"display: flex; justify-content: center; padding: 0 5vw; max-width: 90vw; margin: 20px auto;\">\n        <img src=\"https://raw.githubusercontent.com/rondeline/metanoise/master/img/cookies.png\" style=\"max-width: 80%; height: auto;\">\n    </div>\n    ",
			"trial_type": "html-button-response",
			"trial_index": 26,
			"time_elapsed": 494031,
			"plugin_version": "2.0.0"
		},
		{
			"rt": null,
			"response": null,
			"stimulus": [
				"https://raw.githubusercontent.com/rondeline/metanoise/master/mp4/RMS70_finished.mp4"
			],
			"trial_type": "video-button-response",
			"trial_index": 27,
			"time_elapsed": 500959,
			"plugin_version": "2.0.0"
		},
		{
			"rt": 11554,
			"response": 0,
			"stimulus": "\n      <div style=\"display: flex; flex-direction: column; align-items: center; justify-content: center; gap: 20px; max-width: 90vw; margin: auto;\">\n          <img src=\"https://raw.githubusercontent.com/rondeline/metanoise/master/img/floatinghead.png\" style=\"width: 20vw; max-width: 200px; height: auto;\">\n      </div>\n    ",
			"trial_type": "html-button-response",
			"trial_index": 28,
			"time_elapsed": 512514,
			"plugin_version": "2.0.0"
		},
		{
			"trial_type": "html-keyboard-response",
			"trial_index": 29,
			"time_elapsed": 524394,
			"plugin_version": "2.0.0"
		},
		{
			"trial_type": "html-button-response",
			"trial_index": 30,
			"time_elapsed": 537107,
			"plugin_version": "2.0.0"
		},
		{
			"trial_type": "html-button-response",
			"trial_index": 31,
			"time_elapsed": 579581,
			"plugin_version": "2.0.0",
			"correct_response": 3
		},
		{
			"rt": 7431,
			"response": 0,
			"stimulus": [
				"https://raw.githubusercontent.com/rondeline/metanoise/master/mp4/RMS70_gotit.mp4"
			],
			"trial_type": "video-button-response",
			"trial_index": 32,
			"time_elapsed": 587013,
			"plugin_version": "2.0.0"
		},
		{
			"trial_type": "html-button-response",
			"trial_index": 33,
			"time_elapsed": 598340,
			"plugin_version": "2.0.0",
			"correct_response": 1
		},
		{
			"rt": 9610,
			"response": 0,
			"stimulus": [
				"https://raw.githubusercontent.com/rondeline/metanoise/master/mp4/RMS70_readytoplay.mp4"
			],
			"trial_type": "video-button-response",
			"trial_index": 34,
			"time_elapsed": 607951,
			"plugin_version": "2.0.0"
		},
		{
			"rt": null,
			"response": null,
			"stimulus": "<p>Get ready!</p>",
			"trial_type": "html-keyboard-response",
			"trial_index": 35,
			"time_elapsed": 608453,
			"plugin_version": "2.0.0"
		},
		{
			"rt": 14747,
			"response": 2,
			"stimulus": "\n    <div style=\"display: flex; justify-content: center; padding: 0 5vw; max-width: 90vw; margin: 20px auto;\">\n        <img src=\"https://raw.githubusercontent.com/rondeline/metanoise/master/img/flower_picture.png\" style=\"max-width: 80%; height: auto;\">\n    </div>",
			"trial_type": "html-button-response",
			"trial_index": 36,
			"time_elapsed": 623201,
			"plugin_version": "2.0.0"
		},
		{
			"rt": 2532,
			"response": 2,
			"stimulus": "\n    <div style=\"display: flex; justify-content: center; width: 90vw; margin: 20px auto;\">\n        <img src=\"https://raw.githubusercontent.com/rondeline/metanoise/master/img/pot_picture.png\" style=\"width: 70%; height: auto; max-width: none;\">\n    </div>",
			"trial_type": "html-button-response",
			"trial_index": 37,
			"time_elapsed": 625734,
			"plugin_version": "2.0.0"
		},
		{
			"rt": 3324,
			"response": 2,
			"stimulus": "\n    <div style=\"display: flex; justify-content: center; padding: 0 5vw; max-width: 90vw; margin: 20px auto;\">\n        <img src=\"https://raw.githubusercontent.com/rondeline/metanoise/master/img/tree_picture.png\" style=\"max-width: 80%; height: auto;\">\n    </div>",
			"trial_type": "html-button-response",
			"trial_index": 38,
			"time_elapsed": 629059,
			"plugin_version": "2.0.0"
		},
		{
			"rt": 2100,
			"response": 2,
			"stimulus": "\n    <div style=\"display: flex; justify-content: center; width: 90vw; margin: 20px auto;\">\n        <img src=\"https://raw.githubusercontent.com/rondeline/metanoise/master/img/fish_picture.png\" style=\"width: 65%; height: auto; max-width: none;\">\n    </div>",
			"trial_type": "html-button-response",
			"trial_index": 39,
			"time_elapsed": 631160,
			"plugin_version": "2.0.0"
		},
		{
			"rt": 4559,
			"response": 2,
			"stimulus": "\n    <div style=\"display: flex; justify-content: center; padding: 0 5vw; max-width: 90vw; margin: 20px auto;\">\n        <img src=\"https://raw.githubusercontent.com/rondeline/metanoise/master/img/cat_picture.png\" style=\"max-width: 80%; height: auto;\">\n    </div>",
			"trial_type": "html-button-response",
			"trial_index": 40,
			"time_elapsed": 635720,
			"plugin_version": "2.0.0"
		},
		{
			"rt": 4017,
			"response": 2,
			"stimulus": "\n    <div style=\"display: flex; justify-content: center; width: 90vw; margin: 20px auto;\">\n        <img src=\"https://raw.githubusercontent.com/rondeline/metanoise/master/img/bowl_picture.png\" style=\"width: 70%; height: auto; max-width: none;\">\n    </div>",
			"trial_type": "html-button-response",
			"trial_index": 41,
			"time_elapsed": 639738,
			"plugin_version": "2.0.0"
		},
		{
			"rt": 2394,
			"response": 2,
			"stimulus": "\n    <div style=\"display: flex; justify-content: center; width: 90vw; margin: 20px auto;\">\n        <img src=\"https://raw.githubusercontent.com/rondeline/metanoise/master/img/scissors_picture.png\" style=\"width: 70%; height: auto; max-width: none;\">\n    </div>",
			"trial_type": "html-button-response",
			"trial_index": 42,
			"time_elapsed": 642133,
			"plugin_version": "2.0.0"
		},
		{
			"rt": 1924,
			"response": 2,
			"stimulus": "\n    <div style=\"display: flex; justify-content: center; width: 90vw; margin: 20px auto;\">\n        <img src=\"https://raw.githubusercontent.com/rondeline/metanoise/master/img/door_picture.png\" style=\"width: 75%; height: auto; max-width: none;\">\n    </div>",
			"trial_type": "html-button-response",
			"trial_index": 43,
			"time_elapsed": 644058,
			"plugin_version": "2.0.0"
		},
		{
			"rt": null,
			"response": null,
			"stimulus": "<p>Trials complete! Please wait...</p>",
			"trial_type": "html-keyboard-response",
			"trial_index": 44,
			"time_elapsed": 644560,
			"plugin_version": "2.0.0"
		},
		{
			"rt": null,
			"response": null,
			"stimulus": [
				"https://raw.githubusercontent.com/rondeline/metanoise/master/mp4/RMS70_finished.mp4"
			],
			"trial_type": "video-button-response",
			"trial_index": 45,
			"time_elapsed": 651488,
			"plugin_version": "2.0.0"
		},
		{
			"rt": 13842,
			"response": 0,
			"stimulus": "\n      <div style=\"display: flex; flex-direction: column; align-items: center; justify-content: center; gap: 20px; max-width: 90vw; margin: auto;\">\n          <img src=\"https://raw.githubusercontent.com/rondeline/metanoise/master/img/floatinghead.png\" style=\"width: 20vw; max-width: 200px; height: auto;\">\n      </div>\n    ",
			"trial_type": "html-button-response",
			"trial_index": 46,
			"time_elapsed": 665335,
			"plugin_version": "2.0.0"
		},
		{
			"rt": 33505,
			"response": 1,
			"stimulus": "\n      <div style=\"display: flex; flex-direction: column; align-items: center; justify-content: center; gap: 20px; max-width: 90vw; margin: auto;\">\n          <img src=\"https://raw.githubusercontent.com/rondeline/metanoise/master/img/floatinghead.png\" style=\"width: 20vw; max-width: 200px; height: auto;\">\n      </div>\n    ",
			"trial_type": "html-button-response",
			"trial_index": 47,
			"time_elapsed": 698840,
			"plugin_version": "2.0.0"
		},
		{
			"rt": 11004,
			"response": 0,
			"stimulus": "\n      <div style=\"display: flex; flex-direction: column; align-items: center; justify-content: center; gap: 20px; max-width: 90vw; margin: auto;\">\n          <img src=\"https://raw.githubusercontent.com/rondeline/metanoise/master/img/floatinghead.png\" style=\"width: 20vw; max-width: 200px; height: auto;\">\n      </div>\n    ",
			"trial_type": "html-button-response",
			"trial_index": 48,
			"time_elapsed": 709845,
			"plugin_version": "2.0.0"
		},
		{
			"trial_type": "stop-record-plugin",
			"trial_index": 49,
			"time_elapsed": 824617,
			"plugin_version": null
		},
		{
			"rt": 22899,
			"response": 0,
			"stimulus": "\n      <div style=\"display: flex; flex-direction: column; align-items: center; justify-content: center; gap: 20px; max-width: 90vw; margin: auto;\">\n          <img src=\"https://raw.githubusercontent.com/rondeline/metanoise/master/img/floatinghead.png\" style=\"width: 20vw; max-width: 200px; height: auto;\">\n      </div>\n    ",
			"trial_type": "html-button-response",
			"trial_index": 50,
			"time_elapsed": 847517,
			"plugin_version": "2.0.0"
		},
		{
			"rt": null,
			"response": null,
			"stimulus": [
				"https://raw.githubusercontent.com/rondeline/metanoise/master/mp4/RMS70_underthesea.mp4"
			],
			"trial_type": "video-button-response",
			"trial_index": 51,
			"time_elapsed": 865658,
			"plugin_version": "2.0.0"
		},
		{
			"rt": 15142,
			"response": 0,
			"stimulus": "\n        <img src=\"https://raw.githubusercontent.com/rondeline/metanoise/master/img/floatinghead.png\" style=\"position: absolute; top: 75px; left: 0px; width: 250px;\">\n    ",
			"trial_type": "html-button-response",
			"trial_index": 52,
			"time_elapsed": 880801,
			"plugin_version": "2.0.0"
		},
		{
			"rt": 44886,
			"chs_type": "consent",
			"response": {
				"race": [
					"Caucasian/White"
				],
				"email": "howershopper@gmail.com",
				"english": "All of the time",
				"counting": "Know their numbers and can count to at least 10",
				"education": "Bachelor's degree"
			},
			"trial_type": "survey",
			"trial_index": 53,
			"time_elapsed": 925723,
			"plugin_version": "2.0.0"
		},
		{
			"rt": 29621,
			"chs_type": "exit",
			"response": {
				"feedback": null,
				"birthDate": "2020-11-26",
				"useOfMedia": "scientific",
				"withdrawal": false,
				"databraryShare": "yes"
			},
			"trial_type": "survey",
			"trial_index": 54,
			"time_elapsed": 955381,
			"plugin_version": "2.0.0"
		},
		{
			"rt": 9549,
			"chs_type": "consent",
			"response": {
				"question1": null,
				"question2": null,
				"question3": null
			},
			"trial_type": "survey",
			"trial_index": 55,
			"time_elapsed": 964943,
			"plugin_version": "2.0.0"
		}
	]
},
{
	"response": {
		"id": "317462",
		"uuid": "631fa40d-1fcb-4a3e-ad98-ea2af7c44378",
		"date_created": "2025-04-26 08:51:17.634272+00:00",
		"completed": true,
		"withdrawn": false,
		"eligibility": [
			"Eligible"
		],
		"parent_feedback": null,
		"birthdate_difference": 0,
		"video_privacy": "scientific",
		"databrary": "yes",
		"is_preview": false,
		"sequence": [
			"0-preload",
			"1-preload",
			"2-preload",
			"3-html-button-response",
			"4-video-config-plugin",
			"5-consent-video",
			"6-survey",
			"7-video-button-response",
			"8-html-button-response",
			"10-html-button-response",
			"11-start-record-plugin",
			"12-html-keyboard-response",
			"13-html-button-response",
			"14-html-button-response",
			"15-video-button-response",
			"16-html-button-response",
			"17-video-button-response",
			"18-html-keyboard-response",
			"19-html-button-response",
			"20-html-button-response",
			"21-html-button-response",
			"22-html-button-response",
			"23-html-button-response",
			"24-html-button-response",
			"25-html-button-response",
			"26-html-button-response",
			"27-html-keyboard-response",
			"28-video-button-response",
			"29-html-button-response",
			"30-html-button-response",
			"31-html-button-response",
			"32-html-button-response",
			"33-video-button-response",
			"34-html-button-response",
			"35-video-button-response",
			"36-html-button-response",
			"37-html-button-response",
			"38-html-button-response",
			"39-html-button-response",
			"40-html-button-response",
			"41-html-button-response",
			"42-html-button-response",
			"43-html-button-response",
			"45-html-button-response",
			"46-html-button-response",
			"47-html-button-response",
			"48-stop-record-plugin",
			"49-html-button-response",
			"50-video-button-response",
			"51-html-button-response",
			"52-survey",
			"53-survey",
			"54-survey"
		],
		"conditions": [],
		"researcher_payment_status": "",
		"researcher_session_status": "",
		"researcher_star": false
	},
	"consent": {
		"ruling": "accepted",
		"arbiter": "Rondeline  Williams",
		"time": "2025-04-27 02:34",
		"comment": null
	},
	"study": {
		"uuid": "f713a0cc-903f-4f62-8566-dfc7fceaf350"
	},
	"participant": {
		"hashed_id": "ADG7ZA"
	},
	"child": {
		"hashed_id": "YQ4GSE",
		"age_rounded": "1980",
		"gender": "f",
		"age_at_birth": "39 weeks",
		"language_list": "en",
		"condition_list": "",
		"additional_information": "She was conceived through ICSI (IVF)"
	},
	"exp_data": [
		{
			"success": true,
			"timeout": false,
			"trial_type": "preload",
			"trial_index": 0,
			"failed_audio": [],
			"failed_video": [],
			"time_elapsed": 682,
			"failed_images": [],
			"plugin_version": "2.0.0"
		},
		{
			"success": true,
			"timeout": false,
			"trial_type": "preload",
			"trial_index": 1,
			"failed_audio": [],
			"failed_video": [],
			"time_elapsed": 1521,
			"failed_images": [],
			"plugin_version": "2.0.0"
		},
		{
			"success": true,
			"timeout": false,
			"trial_type": "preload",
			"trial_index": 2,
			"failed_audio": [],
			"failed_video": [],
			"time_elapsed": 3170,
			"failed_images": [],
			"plugin_version": "2.0.0"
		},
		{
			"rt": 1991,
			"response": 0,
			"stimulus": "Welcome! Press \"next\" to continue.",
			"trial_type": "html-button-response",
			"trial_index": 3,
			"time_elapsed": 5163,
			"plugin_version": "2.0.0"
		},
		{
			"rt": 15638,
			"camId": "67cb8eca078d183f4650ac570258dc7f588d1a1ed61551fcac0d1466c09178b3",
			"micId": "06d6cde2576e6afcf25006a2e5c45378e5b631222509a98f70156c9ee239a552",
			"trial_type": "video-config-plugin",
			"trial_index": 4,
			"time_elapsed": 20829,
			"plugin_version": "3.0.1"
		},
		{
			"chs_type": "consent",
			"trial_type": "consent-video",
			"trial_index": 5,
			"time_elapsed": 82267,
			"plugin_version": "3.0.1"
		},
		{
			"rt": 26873,
			"chs_type": "consent",
			"response": {
				"audio": null,
				"video": null,
				"Ready?": null,
				"question1": null
			},
			"trial_type": "survey",
			"trial_index": 6,
			"time_elapsed": 109213,
			"plugin_version": "2.0.0"
		},
		{
			"rt": null,
			"response": null,
			"stimulus": [
				"https://raw.githubusercontent.com/rondeline/metanoise/master/mp4/directions.mp4"
			],
			"trial_type": "video-button-response",
			"trial_index": 7,
			"time_elapsed": 142548,
			"plugin_version": "2.0.0"
		},
		{
			"rt": 16680,
			"response": 0,
			"stimulus": "\n      <div style=\"display: flex; flex-direction: column; align-items: center; justify-content: center; gap: 40px; max-width: 90vw; margin: auto; margin-bottom: 50px;\">\n          <img src=\"https://raw.githubusercontent.com/rondeline/metanoise/master/img/floatinghead.png\" style=\"width: 20vw; max-width: 200px; height: auto;\">\n      </div>\n    ",
			"trial_type": "html-button-response",
			"trial_index": 8,
			"time_elapsed": 159237,
			"plugin_version": "2.0.0"
		},
		{
			"trial_type": "html-button-response",
			"trial_index": 10,
			"time_elapsed": 172095,
			"plugin_version": "2.0.0"
		},
		{
			"trial_type": "start-record-plugin",
			"trial_index": 11,
			"time_elapsed": 173407,
			"plugin_version": null
		},
		{
			"trial_type": "html-keyboard-response",
			"trial_index": 12,
			"time_elapsed": 185152,
			"plugin_version": "2.0.0"
		},
		{
			"trial_type": "html-button-response",
			"trial_index": 13,
			"time_elapsed": 203957,
			"plugin_version": "2.0.0"
		},
		{
			"trial_type": "html-button-response",
			"trial_index": 14,
			"time_elapsed": 214219,
			"plugin_version": "2.0.0",
			"correct_response": 2
		},
		{
			"rt": 9008,
			"response": 0,
			"stimulus": [
				"https://raw.githubusercontent.com/rondeline/metanoise/master/mp4/RMS70_gotit.mp4"
			],
			"trial_type": "video-button-response",
			"trial_index": 15,
			"time_elapsed": 223230,
			"plugin_version": "2.0.0"
		},
		{
			"trial_type": "html-button-response",
			"trial_index": 16,
			"time_elapsed": 237695,
			"plugin_version": "2.0.0",
			"correct_response": 1
		},
		{
			"rt": 9894,
			"response": 0,
			"stimulus": [
				"https://raw.githubusercontent.com/rondeline/metanoise/master/mp4/RMS70_readytoplay.mp4"
			],
			"trial_type": "video-button-response",
			"trial_index": 17,
			"time_elapsed": 247592,
			"plugin_version": "2.0.0"
		},
		{
			"rt": null,
			"response": null,
			"stimulus": "<p>Get ready!</p>",
			"trial_type": "html-keyboard-response",
			"trial_index": 18,
			"time_elapsed": 248094,
			"plugin_version": "2.0.0"
		},
		{
			"rt": 11805,
			"response": 2,
			"stimulus": "\n    <div style=\"display: flex; justify-content: center; padding: 0 5vw; max-width: 90vw; margin: 20px auto;\">\n        <img src=\"https://raw.githubusercontent.com/rondeline/metanoise/master/img/crayons.png\" style=\"max-width: 80%; height: auto;\">\n    </div>\n    ",
			"trial_type": "html-button-response",
			"trial_index": 19,
			"time_elapsed": 259902,
			"extension_type": [
				"chs-trial-record-extension"
			],
			"plugin_version": "2.0.0",
			"extension_version": [
				null
			]
		},
		{
			"rt": 8248,
			"response": 5,
			"stimulus": "\n    <div style=\"display: flex; justify-content: center; padding: 0 5vw; max-width: 90vw; margin: 20px auto;\">\n        <img src=\"https://raw.githubusercontent.com/rondeline/metanoise/master/img/basketball.png\" style=\"max-width: 80%; height: auto;\">\n    </div>\n    ",
			"trial_type": "html-button-response",
			"trial_index": 20,
			"time_elapsed": 268153,
			"plugin_version": "2.0.0"
		},
		{
			"rt": 10509,
			"response": 6,
			"stimulus": "\n    <div style=\"display: flex; justify-content: center; padding: 0 5vw; max-width: 90vw; margin: 20px auto;\">\n        <img src=\"https://raw.githubusercontent.com/rondeline/metanoise/master/img/cookies.png\" style=\"max-width: 80%; height: auto;\">\n    </div>\n    ",
			"trial_type": "html-button-response",
			"trial_index": 21,
			"time_elapsed": 278665,
			"plugin_version": "2.0.0"
		},
		{
			"rt": 9565,
			"response": 7,
			"stimulus": "\n    <div style=\"display: flex; justify-content: center; padding: 0 5vw; max-width: 90vw; margin: 20px auto;\">\n        <img src=\"https://raw.githubusercontent.com/rondeline/metanoise/master/img/balloon.png\" style=\"max-width: 80%; height: auto;\">\n    </div>\n    ",
			"trial_type": "html-button-response",
			"trial_index": 22,
			"time_elapsed": 288232,
			"plugin_version": "2.0.0"
		},
		{
			"rt": 7901,
			"response": 4,
			"stimulus": "\n    <div style=\"display: flex; justify-content: center; padding: 0 5vw; max-width: 90vw; margin: 20px auto;\">\n        <img src=\"https://raw.githubusercontent.com/rondeline/metanoise/master/img/monkey.png\" style=\"max-width: 80%; height: auto;\">\n    </div>\n    ",
			"trial_type": "html-button-response",
			"trial_index": 23,
			"time_elapsed": 296136,
			"plugin_version": "2.0.0"
		},
		{
			"rt": 6472,
			"response": 5,
			"stimulus": "\n        <div style=\"display: flex; justify-content: center; padding: 0 5vw; max-width: 90vw; margin: 20px auto;\">\n            <img src=\"https://raw.githubusercontent.com/rondeline/metanoise/master/img/flowers.png\" style=\"max-width: 80%; height: auto;\">\n        </div>\n    ",
			"trial_type": "html-button-response",
			"trial_index": 24,
			"time_elapsed": 302611,
			"plugin_version": "2.0.0"
		},
		{
			"rt": 6465,
			"response": 3,
			"stimulus": "\n    <div style=\"display: flex; justify-content: center; padding: 0 5vw; max-width: 90vw; margin: 20px auto;\">\n        <img src=\"https://raw.githubusercontent.com/rondeline/metanoise/master/img/pig.png\" style=\"max-width: 80%; height: auto;\">\n    </div>\n    ",
			"trial_type": "html-button-response",
			"trial_index": 25,
			"time_elapsed": 309078,
			"plugin_version": "2.0.0"
		},
		{
			"rt": 11823,
			"response": 6,
			"stimulus": "\n    <div style=\"display: flex; justify-content: center; padding: 0 5vw; max-width: 90vw; margin: 20px auto;\">\n        <img src=\"https://raw.githubusercontent.com/rondeline/metanoise/master/img/picture.png\" style=\"max-width: 80%; height: auto;\">\n    </div>\n    ",
			"trial_type": "html-button-response",
			"trial_index": 26,
			"time_elapsed": 320904,
			"plugin_version": "2.0.0"
		},
		{
			"rt": null,
			"response": null,
			"stimulus": "<p>Trials complete! Please wait...</p>",
			"trial_type": "html-keyboard-response",
			"trial_index": 27,
			"time_elapsed": 321409,
			"plugin_version": "2.0.0"
		},
		{
			"rt": null,
			"response": null,
			"stimulus": [
				"https://raw.githubusercontent.com/rondeline/metanoise/master/mp4/RMS70_finished.mp4"
			],
			"trial_type": "video-button-response",
			"trial_index": 28,
			"time_elapsed": 328448,
			"plugin_version": "2.0.0"
		},
		{
			"rt": 13299,
			"response": 0,
			"stimulus": "\n      <div style=\"display: flex; flex-direction: column; align-items: center; justify-content: center; gap: 20px; max-width: 90vw; margin: auto;\">\n          <img src=\"https://raw.githubusercontent.com/rondeline/metanoise/master/img/floatinghead.png\" style=\"width: 20vw; max-width: 200px; height: auto;\">\n      </div>\n    ",
			"trial_type": "html-button-response",
			"trial_index": 29,
			"time_elapsed": 341749,
			"plugin_version": "2.0.0"
		},
		{
			"trial_type": "html-button-response",
			"trial_index": 30,
			"time_elapsed": 347870,
			"plugin_version": "2.0.0"
		},
		{
			"trial_type": "html-button-response",
			"trial_index": 31,
			"time_elapsed": 360660,
			"plugin_version": "2.0.0"
		},
		{
			"trial_type": "html-button-response",
			"trial_index": 32,
			"time_elapsed": 369972,
			"plugin_version": "2.0.0",
			"correct_response": 3
		},
		{
			"rt": 5104,
			"response": 0,
			"stimulus": [
				"https://raw.githubusercontent.com/rondeline/metanoise/master/mp4/RMS70_gotit.mp4"
			],
			"trial_type": "video-button-response",
			"trial_index": 33,
			"time_elapsed": 375078,
			"plugin_version": "2.0.0"
		},
		{
			"trial_type": "html-button-response",
			"trial_index": 34,
			"time_elapsed": 387716,
			"plugin_version": "2.0.0",
			"correct_response": 1
		},
		{
			"rt": 5047,
			"response": 0,
			"stimulus": [
				"https://raw.githubusercontent.com/rondeline/metanoise/master/mp4/RMS70_readytoplay.mp4"
			],
			"trial_type": "video-button-response",
			"trial_index": 35,
			"time_elapsed": 392766,
			"plugin_version": "2.0.0"
		},
		{
			"rt": 6627,
			"response": 0,
			"stimulus": "\n    <div style=\"display: flex; justify-content: center; padding: 0 5vw; max-width: 90vw; margin: 20px auto;\">\n        <img src=\"https://raw.githubusercontent.com/rondeline/metanoise/master/img/tree_picture.png\" style=\"max-width: 80%; height: auto;\">\n    </div>",
			"trial_type": "html-button-response",
			"trial_index": 36,
			"time_elapsed": 399394,
			"plugin_version": "2.0.0"
		},
		{
			"rt": 5819,
			"response": 3,
			"stimulus": "\n    <div style=\"display: flex; justify-content: center; width: 90vw; margin: 20px auto;\">\n        <img src=\"https://raw.githubusercontent.com/rondeline/metanoise/master/img/scissors_picture.png\" style=\"width: 70%; height: auto; max-width: none;\">\n    </div>",
			"trial_type": "html-button-response",
			"trial_index": 37,
			"time_elapsed": 405215,
			"plugin_version": "2.0.0"
		},
		{
			"rt": 12510,
			"response": 0,
			"stimulus": "\n    <div style=\"display: flex; justify-content: center; padding: 0 5vw; max-width: 90vw; margin: 20px auto;\">\n        <img src=\"https://raw.githubusercontent.com/rondeline/metanoise/master/img/cat_picture.png\" style=\"max-width: 80%; height: auto;\">\n    </div>",
			"trial_type": "html-button-response",
			"trial_index": 38,
			"time_elapsed": 417727,
			"plugin_version": "2.0.0"
		},
		{
			"rt": 10788,
			"response": 2,
			"stimulus": "\n    <div style=\"display: flex; justify-content: center; width: 90vw; margin: 20px auto;\">\n        <img src=\"https://raw.githubusercontent.com/rondeline/metanoise/master/img/fish_picture.png\" style=\"width: 65%; height: auto; max-width: none;\">\n    </div>",
			"trial_type": "html-button-response",
			"trial_index": 39,
			"time_elapsed": 428517,
			"plugin_version": "2.0.0"
		},
		{
			"rt": 4664,
			"response": 2,
			"stimulus": "\n    <div style=\"display: flex; justify-content: center; padding: 0 5vw; max-width: 90vw; margin: 20px auto;\">\n        <img src=\"https://raw.githubusercontent.com/rondeline/metanoise/master/img/flower_picture.png\" style=\"max-width: 80%; height: auto;\">\n    </div>",
			"trial_type": "html-button-response",
			"trial_index": 40,
			"time_elapsed": 433184,
			"plugin_version": "2.0.0"
		},
		{
			"rt": 6211,
			"response": 2,
			"stimulus": "\n    <div style=\"display: flex; justify-content: center; width: 90vw; margin: 20px auto;\">\n        <img src=\"https://raw.githubusercontent.com/rondeline/metanoise/master/img/pot_picture.png\" style=\"width: 70%; height: auto; max-width: none;\">\n    </div>",
			"trial_type": "html-button-response",
			"trial_index": 41,
			"time_elapsed": 439398,
			"plugin_version": "2.0.0"
		},
		{
			"rt": 5411,
			"response": 3,
			"stimulus": "\n    <div style=\"display: flex; justify-content: center; width: 90vw; margin: 20px auto;\">\n        <img src=\"https://raw.githubusercontent.com/rondeline/metanoise/master/img/bowl_picture.png\" style=\"width: 70%; height: auto; max-width: none;\">\n    </div>",
			"trial_type": "html-button-response",
			"trial_index": 42,
			"time_elapsed": 444812,
			"plugin_version": "2.0.0"
		},
		{
			"rt": 14979,
			"response": 3,
			"stimulus": "\n    <div style=\"display: flex; justify-content: center; width: 90vw; margin: 20px auto;\">\n        <img src=\"https://raw.githubusercontent.com/rondeline/metanoise/master/img/door_picture.png\" style=\"width: 75%; height: auto; max-width: none;\">\n    </div>",
			"trial_type": "html-button-response",
			"trial_index": 43,
			"time_elapsed": 459793,
			"plugin_version": "2.0.0"
		},
		{
			"rt": null,
			"response": null,
			"stimulus": [
				"https://raw.githubusercontent.com/rondeline/metanoise/master/mp4/RMS70_finished.mp4"
			],
			"trial_type": "video-button-response",
			"trial_index": 44,
			"time_elapsed": 466807,
			"plugin_version": "2.0.0"
		},
		{
			"rt": 296,
			"response": 1,
			"stimulus": "\n      <div style=\"display: flex; flex-direction: column; align-items: center; justify-content: center; gap: 20px; max-width: 90vw; margin: auto;\">\n          <img src=\"https://raw.githubusercontent.com/rondeline/metanoise/master/img/floatinghead.png\" style=\"width: 20vw; max-width: 200px; height: auto;\">\n      </div>\n    ",
			"trial_type": "html-button-response",
			"trial_index": 45,
			"time_elapsed": 467105,
			"plugin_version": "2.0.0"
		},
		{
			"rt": 28072,
			"response": 0,
			"stimulus": "\n      <div style=\"display: flex; flex-direction: column; align-items: center; justify-content: center; gap: 20px; max-width: 90vw; margin: auto;\">\n          <img src=\"https://raw.githubusercontent.com/rondeline/metanoise/master/img/floatinghead.png\" style=\"width: 20vw; max-width: 200px; height: auto;\">\n      </div>\n    ",
			"trial_type": "html-button-response",
			"trial_index": 46,
			"time_elapsed": 495179,
			"plugin_version": "2.0.0"
		},
		{
			"rt": 4112,
			"response": 0,
			"stimulus": "\n      <div style=\"display: flex; flex-direction: column; align-items: center; justify-content: center; gap: 20px; max-width: 90vw; margin: auto;\">\n          <img src=\"https://raw.githubusercontent.com/rondeline/metanoise/master/img/floatinghead.png\" style=\"width: 20vw; max-width: 200px; height: auto;\">\n      </div>\n    ",
			"trial_type": "html-button-response",
			"trial_index": 47,
			"time_elapsed": 499293,
			"plugin_version": "2.0.0"
		},
		{
			"trial_type": "stop-record-plugin",
			"trial_index": 48,
			"time_elapsed": 504143,
			"plugin_version": null
		},
		{
			"rt": 24769,
			"response": 0,
			"stimulus": "\n      <div style=\"display: flex; flex-direction: column; align-items: center; justify-content: center; gap: 20px; max-width: 90vw; margin: auto;\">\n          <img src=\"https://raw.githubusercontent.com/rondeline/metanoise/master/img/floatinghead.png\" style=\"width: 20vw; max-width: 200px; height: auto;\">\n      </div>\n    ",
			"trial_type": "html-button-response",
			"trial_index": 49,
			"time_elapsed": 528914,
			"plugin_version": "2.0.0"
		},
		{
			"rt": null,
			"response": null,
			"stimulus": [
				"https://raw.githubusercontent.com/rondeline/metanoise/master/mp4/RMS70_underthesea.mp4"
			],
			"trial_type": "video-button-response",
			"trial_index": 50,
			"time_elapsed": 547161,
			"plugin_version": "2.0.0"
		},
		{
			"rt": 9467,
			"response": 0,
			"stimulus": "\n        <img src=\"https://raw.githubusercontent.com/rondeline/metanoise/master/img/floatinghead.png\" style=\"position: absolute; top: 75px; left: 0px; width: 250px;\">\n    ",
			"trial_type": "html-button-response",
